{
  "resourceType": "Bundle",
  "id": "EXM529-1.0.000-bundle",
  "type": "transaction",
  "entry": [
    {
      "resource": {
        "resourceType": "ValueSet",
        "id": "2.16.840.1.113762.1.4.1045.119",
        "meta": {
          "versionId": "25",
          "lastUpdated": "2020-03-07T01:00:21.000-05:00"
        },
        "text": {
          "status": "generated",
          "div": "<div xmlns=\"http://www.w3.org/1999/xhtml\"><h2>Sodium lab test</h2><p>This value set includes codes from the following code systems:</p><ul><li>Include these codes as defined in <a href=\"http://loinc.org\"><code>http://loinc.org</code></a><table class=\"none\"><tr><td><b>Code</b></td><td><b>Display</b></td></tr><tr><td><a href=\"http://details.loinc.org/LOINC/2947-0.html\">2947-0</a></td><td>Sodium [Moles/volume] in Blood</td><td/></tr><tr><td><a href=\"http://details.loinc.org/LOINC/2951-2.html\">2951-2</a></td><td>Sodium [Moles/volume] in Serum or Plasma</td><td/></tr><tr><td><a href=\"http://details.loinc.org/LOINC/32717-1.html\">32717-1</a></td><td>Sodium [Moles/volume] in Arterial blood</td><td/></tr><tr><td><a href=\"http://details.loinc.org/LOINC/39791-9.html\">39791-9</a></td><td>Sodium [Moles/volume] in Venous blood</td><td/></tr><tr><td><a href=\"http://details.loinc.org/LOINC/41657-8.html\">41657-8</a></td><td>Sodium [Moles/volume] in Mixed venous blood</td><td/></tr></table></li></ul></div>"
        },
        "url": "http://cts.nlm.nih.gov/fhir/ValueSet/2.16.840.1.113762.1.4.1045.119",
        "version": "20200307",
        "name": "Sodium lab test",
        "status": "active",
        "date": "2020-03-07T01:00:21-05:00",
        "publisher": "Yale",
        "compose": {
          "include": [
            {
              "system": "http://loinc.org",
              "concept": [
                {
                  "code": "2947-0",
                  "display": "Sodium [Moles/volume] in Blood"
                },
                {
                  "code": "2951-2",
                  "display": "Sodium [Moles/volume] in Serum or Plasma"
                },
                {
                  "code": "32717-1",
                  "display": "Sodium [Moles/volume] in Arterial blood"
                },
                {
                  "code": "39791-9",
                  "display": "Sodium [Moles/volume] in Venous blood"
                },
                {
                  "code": "41657-8",
                  "display": "Sodium [Moles/volume] in Mixed venous blood"
                }
              ]
            }
          ]
        }
      },
      "request": {
        "method": "PUT",
        "url": "ValueSet/2.16.840.1.113762.1.4.1045.119/_history/25"
      }
    },
    {
      "resource": {
        "resourceType": "ValueSet",
        "id": "2.16.840.1.114222.4.11.836",
        "url": "http://cts.nlm.nih.gov/fhir/ValueSet/2.16.840.1.114222.4.11.836",
        "identifier": [
          {
            "system": "urn:ietf:rfc:3986",
            "value": "2.16.840.1.114222.4.11.836"
          }
        ],
        "version": "20121025",
        "name": "Race",
        "title": "Race",
        "status": "active",
        "publisher": "NLM",
        "compose": {
          "include": [
            {
              "system": "http://www.cdc.gov/phin/resources/vocabulary/index.html",
              "version": "1.2",
              "concept": [
                {
                  "code": "1002-5",
                  "display": "American Indian or Alaska Native"
                },
                {
                  "code": "2028-9",
                  "display": "Asian"
                },
                {
                  "code": "2054-5",
                  "display": "Black or African American"
                },
                {
                  "code": "2076-8",
                  "display": "Native Hawaiian or Other Pacific Islander"
                },
                {
                  "code": "2106-3",
                  "display": "White"
                },
                {
                  "code": "2131-1",
                  "display": "Other Race"
                }
              ]
            }
          ]
        }
      },
      "request": {
        "method": "PUT",
        "url": "ValueSet/2.16.840.1.114222.4.11.836"
      }
    },
    {
      "resource": {
        "resourceType": "ValueSet",
        "id": "2.16.840.1.113762.1.4.1045.129",
        "meta": {
          "versionId": "22",
          "lastUpdated": "2020-03-07T01:00:21.000-05:00"
        },
        "text": {
          "status": "generated",
          "div": "<div xmlns=\"http://www.w3.org/1999/xhtml\"><h2>White blood cells count lab test</h2><p>This value set includes codes from the following code systems:</p><ul><li>Include these codes as defined in <a href=\"http://loinc.org\"><code>http://loinc.org</code></a><table class=\"none\"><tr><td><b>Code</b></td><td><b>Display</b></td></tr><tr><td><a href=\"http://details.loinc.org/LOINC/26464-8.html\">26464-8</a></td><td>Leukocytes [#/volume] in Blood</td><td/></tr><tr><td><a href=\"http://details.loinc.org/LOINC/33256-9.html\">33256-9</a></td><td>Leukocytes [#/volume] corrected for nucleated erythrocytes in Blood by Automated count</td><td/></tr><tr><td><a href=\"http://details.loinc.org/LOINC/49498-9.html\">49498-9</a></td><td>Leukocytes [#/volume] in Blood by Estimate</td><td/></tr><tr><td><a href=\"http://details.loinc.org/LOINC/6690-2.html\">6690-2</a></td><td>Leukocytes [#/volume] in Blood by Automated count</td><td/></tr><tr><td><a href=\"http://details.loinc.org/LOINC/804-5.html\">804-5</a></td><td>Leukocytes [#/volume] in Blood by Manual count</td><td/></tr></table></li></ul></div>"
        },
        "url": "http://cts.nlm.nih.gov/fhir/ValueSet/2.16.840.1.113762.1.4.1045.129",
        "version": "20200307",
        "name": "White blood cells count lab test",
        "status": "active",
        "date": "2020-03-07T01:00:21-05:00",
        "publisher": "Yale",
        "compose": {
          "include": [
            {
              "system": "http://loinc.org",
              "concept": [
                {
                  "code": "26464-8",
                  "display": "Leukocytes [#/volume] in Blood"
                },
                {
                  "code": "33256-9",
                  "display": "Leukocytes [#/volume] corrected for nucleated erythrocytes in Blood by Automated count"
                },
                {
                  "code": "49498-9",
                  "display": "Leukocytes [#/volume] in Blood by Estimate"
                },
                {
                  "code": "6690-2",
                  "display": "Leukocytes [#/volume] in Blood by Automated count"
                },
                {
                  "code": "804-5",
                  "display": "Leukocytes [#/volume] in Blood by Manual count"
                }
              ]
            }
          ]
        }
      },
      "request": {
        "method": "PUT",
        "url": "ValueSet/2.16.840.1.113762.1.4.1045.129/_history/22"
      }
    },
    {
      "resource": {
        "resourceType": "ValueSet",
        "id": "2.16.840.1.114222.4.11.837",
        "url": "http://cts.nlm.nih.gov/fhir/ValueSet/2.16.840.1.114222.4.11.837",
        "identifier": [
          {
            "system": "urn:ietf:rfc:3986",
            "value": "2.16.840.1.114222.4.11.837"
          }
        ],
        "version": "20121025",
        "name": "Ethnicity",
        "title": "Ethnicity",
        "status": "active",
        "publisher": "NLM",
        "compose": {
          "include": [
            {
              "system": "http://www.cdc.gov/phin/resources/vocabulary/index.html",
              "version": "1.2",
              "concept": [
                {
                  "code": "2135-2",
                  "display": "Hispanic or Latino"
                },
                {
                  "code": "2186-5",
                  "display": "Not Hispanic or Latino"
                }
              ]
            }
          ]
        }
      },
      "request": {
        "method": "PUT",
        "url": "ValueSet/2.16.840.1.114222.4.11.837"
      }
    },
    {
      "resource": {
        "resourceType": "Observation",
        "id": "ip-EXM529-ObsHR2",
        "meta": {
          "profile": [
            "http://hl7.org/fhir/observation"
          ]
        },
        "status": "final",
        "code": {
          "coding": [
            {
              "system": "http://loinc.org",
              "code": "8867-4",
              "display": "Heart rate"
            }
          ]
        },
        "subject": {
          "reference": "Patient/ip-EXM529"
        },
        "effectiveDateTime": "2019-01-16T00:10:00",
        "valueQuantity": {
          "value": 80,
          "unit": "bpm"
        }
      },
      "request": {
        "method": "PUT",
        "url": "Observation/ip-EXM529-ObsHR2"
      }
    },
    {
      "resource": {
        "resourceType": "Observation",
        "id": "ip-EXM529-ObsHR3",
        "meta": {
          "profile": [
            "http://hl7.org/fhir/observation"
          ]
        },
        "status": "final",
        "code": {
          "coding": [
            {
              "system": "http://loinc.org",
              "code": "8867-4",
              "display": "Heart rate"
            }
          ]
        },
        "subject": {
          "reference": "Patient/ip-EXM529"
        },
        "effectiveDateTime": "2019-01-16T00:15:00",
        "valueQuantity": {
          "value": 82,
          "unit": "bpm"
        }
      },
      "request": {
        "method": "PUT",
        "url": "Observation/ip-EXM529-ObsHR3"
      }
    },
    {
      "resource": {
        "resourceType": "ValueSet",
        "id": "2.16.840.1.113762.1.4.1045.139",
        "meta": {
          "versionId": "20",
          "lastUpdated": "2020-03-07T01:00:21.000-05:00"
        },
        "text": {
          "status": "generated",
          "div": "<div xmlns=\"http://www.w3.org/1999/xhtml\"><h2>Bicarbonate lab test</h2><p>This value set includes codes from the following code systems:</p><ul><li>Include these codes as defined in <a href=\"http://loinc.org\"><code>http://loinc.org</code></a><table class=\"none\"><tr><td><b>Code</b></td><td><b>Display</b></td></tr><tr><td><a href=\"http://details.loinc.org/LOINC/14627-4.html\">14627-4</a></td><td>Bicarbonate [Moles/volume] in Venous blood</td><td/></tr><tr><td><a href=\"http://details.loinc.org/LOINC/19223-7.html\">19223-7</a></td><td>Carbon dioxide, total [Moles/volume] in Mixed venous blood</td><td/></tr><tr><td><a href=\"http://details.loinc.org/LOINC/19229-4.html\">19229-4</a></td><td>Bicarbonate [Moles/volume] in Mixed venous blood</td><td/></tr><tr><td><a href=\"http://details.loinc.org/LOINC/19230-2.html\">19230-2</a></td><td>Bicarbonate [Moles/volume] standard in Arterial blood</td><td/></tr><tr><td><a href=\"http://details.loinc.org/LOINC/19232-8.html\">19232-8</a></td><td>Bicarbonate [Moles/volume] standard in Venous blood</td><td/></tr><tr><td><a href=\"http://details.loinc.org/LOINC/19233-6.html\">19233-6</a></td><td>Bicarbonate [Moles/volume] standard in Mixed venous blood</td><td/></tr><tr><td><a href=\"http://details.loinc.org/LOINC/1959-6.html\">1959-6</a></td><td>Bicarbonate [Moles/volume] in Blood</td><td/></tr><tr><td><a href=\"http://details.loinc.org/LOINC/1960-4.html\">1960-4</a></td><td>Bicarbonate [Moles/volume] in Arterial blood</td><td/></tr><tr><td><a href=\"http://details.loinc.org/LOINC/1963-8.html\">1963-8</a></td><td>Bicarbonate [Moles/volume] in Serum or Plasma</td><td/></tr><tr><td><a href=\"http://details.loinc.org/LOINC/2026-3.html\">2026-3</a></td><td>Carbon dioxide, total [Moles/volume] in Arterial blood</td><td/></tr><tr><td><a href=\"http://details.loinc.org/LOINC/2027-1.html\">2027-1</a></td><td>Carbon dioxide, total [Moles/volume] in Venous blood</td><td/></tr><tr><td><a href=\"http://details.loinc.org/LOINC/2028-9.html\">2028-9</a></td><td>Carbon dioxide, total [Moles/volume] in Serum or Plasma</td><td/></tr><tr><td><a href=\"http://details.loinc.org/LOINC/20565-8.html\">20565-8</a></td><td>Carbon dioxide, total [Moles/volume] in Blood</td><td/></tr><tr><td><a href=\"http://details.loinc.org/LOINC/77143-6.html\">77143-6</a></td><td>Carbon dioxide, total [Moles/volume] in Serum, Plasma or Blood</td><td/></tr></table></li></ul></div>"
        },
        "url": "http://cts.nlm.nih.gov/fhir/ValueSet/2.16.840.1.113762.1.4.1045.139",
        "version": "20200307",
        "name": "Bicarbonate lab test",
        "status": "active",
        "date": "2020-03-07T01:00:21-05:00",
        "publisher": "Yale",
        "compose": {
          "include": [
            {
              "system": "http://loinc.org",
              "concept": [
                {
                  "code": "14627-4",
                  "display": "Bicarbonate [Moles/volume] in Venous blood"
                },
                {
                  "code": "19223-7",
                  "display": "Carbon dioxide, total [Moles/volume] in Mixed venous blood"
                },
                {
                  "code": "19229-4",
                  "display": "Bicarbonate [Moles/volume] in Mixed venous blood"
                },
                {
                  "code": "19230-2",
                  "display": "Bicarbonate [Moles/volume] standard in Arterial blood"
                },
                {
                  "code": "19232-8",
                  "display": "Bicarbonate [Moles/volume] standard in Venous blood"
                },
                {
                  "code": "19233-6",
                  "display": "Bicarbonate [Moles/volume] standard in Mixed venous blood"
                },
                {
                  "code": "1959-6",
                  "display": "Bicarbonate [Moles/volume] in Blood"
                },
                {
                  "code": "1960-4",
                  "display": "Bicarbonate [Moles/volume] in Arterial blood"
                },
                {
                  "code": "1963-8",
                  "display": "Bicarbonate [Moles/volume] in Serum or Plasma"
                },
                {
                  "code": "2026-3",
                  "display": "Carbon dioxide, total [Moles/volume] in Arterial blood"
                },
                {
                  "code": "2027-1",
                  "display": "Carbon dioxide, total [Moles/volume] in Venous blood"
                },
                {
                  "code": "2028-9",
                  "display": "Carbon dioxide, total [Moles/volume] in Serum or Plasma"
                },
                {
                  "code": "20565-8",
                  "display": "Carbon dioxide, total [Moles/volume] in Blood"
                },
                {
                  "code": "77143-6",
                  "display": "Carbon dioxide, total [Moles/volume] in Serum, Plasma or Blood"
                }
              ]
            }
          ]
        }
      },
      "request": {
        "method": "PUT",
        "url": "ValueSet/2.16.840.1.113762.1.4.1045.139/_history/20"
      }
    },
    {
      "resource": {
        "resourceType": "ValueSet",
        "id": "2.16.840.1.113762.1.4.1045.117",
        "meta": {
          "versionId": "25",
          "lastUpdated": "2020-03-07T01:00:21.000-05:00"
        },
        "text": {
          "status": "generated",
          "div": "<div xmlns=\"http://www.w3.org/1999/xhtml\"><h2>Potassium lab test</h2><p>This value set includes codes from the following code systems:</p><ul><li>Include these codes as defined in <a href=\"http://loinc.org\"><code>http://loinc.org</code></a><table class=\"none\"><tr><td><b>Code</b></td><td><b>Display</b></td></tr><tr><td><a href=\"http://details.loinc.org/LOINC/2823-3.html\">2823-3</a></td><td>Potassium [Moles/volume] in Serum or Plasma</td><td/></tr><tr><td><a href=\"http://details.loinc.org/LOINC/32713-0.html\">32713-0</a></td><td>Potassium [Moles/volume] in Arterial blood</td><td/></tr><tr><td><a href=\"http://details.loinc.org/LOINC/39789-3.html\">39789-3</a></td><td>Potassium [Moles/volume] in Venous blood</td><td/></tr><tr><td><a href=\"http://details.loinc.org/LOINC/41656-0.html\">41656-0</a></td><td>Potassium [Moles/volume] in Mixed venous blood</td><td/></tr><tr><td><a href=\"http://details.loinc.org/LOINC/6298-4.html\">6298-4</a></td><td>Potassium [Moles/volume] in Blood</td><td/></tr></table></li></ul></div>"
        },
        "url": "http://cts.nlm.nih.gov/fhir/ValueSet/2.16.840.1.113762.1.4.1045.117",
        "version": "20200307",
        "name": "Potassium lab test",
        "status": "active",
        "date": "2020-03-07T01:00:21-05:00",
        "publisher": "Yale",
        "compose": {
          "include": [
            {
              "system": "http://loinc.org",
              "concept": [
                {
                  "code": "2823-3",
                  "display": "Potassium [Moles/volume] in Serum or Plasma"
                },
                {
                  "code": "32713-0",
                  "display": "Potassium [Moles/volume] in Arterial blood"
                },
                {
                  "code": "39789-3",
                  "display": "Potassium [Moles/volume] in Venous blood"
                },
                {
                  "code": "41656-0",
                  "display": "Potassium [Moles/volume] in Mixed venous blood"
                },
                {
                  "code": "6298-4",
                  "display": "Potassium [Moles/volume] in Blood"
                }
              ]
            }
          ]
        }
      },
      "request": {
        "method": "PUT",
        "url": "ValueSet/2.16.840.1.113762.1.4.1045.117/_history/25"
      }
    },
    {
      "resource": {
        "resourceType": "ValueSet",
        "id": "2.16.840.1.113762.1.4.1045.134",
        "meta": {
          "versionId": "21",
          "lastUpdated": "2020-03-07T01:00:21.000-05:00"
        },
        "text": {
          "status": "generated",
          "div": "<div xmlns=\"http://www.w3.org/1999/xhtml\"><h2>Glucose lab test</h2><p>This value set includes codes from the following code systems:</p><ul><li>Include these codes as defined in <a href=\"http://loinc.org\"><code>http://loinc.org</code></a><table class=\"none\"><tr><td><b>Code</b></td><td><b>Display</b></td></tr><tr><td><a href=\"http://details.loinc.org/LOINC/14743-9.html\">14743-9</a></td><td>Glucose [Moles/volume] in Capillary blood by Glucometer</td><td/></tr><tr><td><a href=\"http://details.loinc.org/LOINC/14749-6.html\">14749-6</a></td><td>Glucose [Moles/volume] in Serum or Plasma</td><td/></tr><tr><td><a href=\"http://details.loinc.org/LOINC/14760-3.html\">14760-3</a></td><td>Glucose [Moles/volume] in Capillary blood --2 hours post meal</td><td/></tr><tr><td><a href=\"http://details.loinc.org/LOINC/14770-2.html\">14770-2</a></td><td>Fasting glucose [Moles/volume] in Capillary blood by Glucometer</td><td/></tr><tr><td><a href=\"http://details.loinc.org/LOINC/15074-8.html\">15074-8</a></td><td>Glucose [Moles/volume] in Blood</td><td/></tr><tr><td><a href=\"http://details.loinc.org/LOINC/1556-0.html\">1556-0</a></td><td>Fasting glucose [Mass/volume] in Capillary blood</td><td/></tr><tr><td><a href=\"http://details.loinc.org/LOINC/1557-8.html\">1557-8</a></td><td>Fasting glucose [Mass/volume] in Venous blood</td><td/></tr><tr><td><a href=\"http://details.loinc.org/LOINC/1558-6.html\">1558-6</a></td><td>Fasting glucose [Mass/volume] in Serum or Plasma</td><td/></tr><tr><td><a href=\"http://details.loinc.org/LOINC/2339-0.html\">2339-0</a></td><td>Glucose [Mass/volume] in Blood</td><td/></tr><tr><td><a href=\"http://details.loinc.org/LOINC/2340-8.html\">2340-8</a></td><td>Glucose [Mass/volume] in Blood by Automated test strip</td><td/></tr><tr><td><a href=\"http://details.loinc.org/LOINC/2341-6.html\">2341-6</a></td><td>Glucose [Mass/volume] in Blood by Test strip manual</td><td/></tr><tr><td><a href=\"http://details.loinc.org/LOINC/2345-7.html\">2345-7</a></td><td>Glucose [Mass/volume] in Serum or Plasma</td><td/></tr><tr><td><a href=\"http://details.loinc.org/LOINC/32016-8.html\">32016-8</a></td><td>Glucose [Mass/volume] in Capillary blood</td><td/></tr><tr><td><a href=\"http://details.loinc.org/LOINC/39480-9.html\">39480-9</a></td><td>Glucose [Moles/volume] in Venous blood</td><td/></tr><tr><td><a href=\"http://details.loinc.org/LOINC/39481-7.html\">39481-7</a></td><td>Glucose [Moles/volume] in Arterial blood</td><td/></tr><tr><td><a href=\"http://details.loinc.org/LOINC/40858-3.html\">40858-3</a></td><td>Glucose [Mass/volume] in Capillary blood --baseline</td><td/></tr><tr><td><a href=\"http://details.loinc.org/LOINC/41604-0.html\">41604-0</a></td><td>Fasting glucose [Mass/volume] in Capillary blood by Glucometer</td><td/></tr><tr><td><a href=\"http://details.loinc.org/LOINC/41651-1.html\">41651-1</a></td><td>Glucose [Mass/volume] in Arterial blood</td><td/></tr><tr><td><a href=\"http://details.loinc.org/LOINC/41652-9.html\">41652-9</a></td><td>Glucose [Mass/volume] in Venous blood</td><td/></tr><tr><td><a href=\"http://details.loinc.org/LOINC/41653-7.html\">41653-7</a></td><td>Glucose [Mass/volume] in Capillary blood by Glucometer</td><td/></tr><tr><td><a href=\"http://details.loinc.org/LOINC/51596-5.html\">51596-5</a></td><td>Glucose [Moles/volume] in Capillary blood</td><td/></tr><tr><td><a href=\"http://details.loinc.org/LOINC/59813-6.html\">59813-6</a></td><td>Glucose [Moles/volume] in Capillary blood by Glucometer --7 AM specimen</td><td/></tr><tr><td><a href=\"http://details.loinc.org/LOINC/72516-8.html\">72516-8</a></td><td>Glucose [Moles/volume] in Blood by Automated test strip</td><td/></tr><tr><td><a href=\"http://details.loinc.org/LOINC/74774-1.html\">74774-1</a></td><td>Glucose [Mass/volume] in Serum, Plasma or Blood</td><td/></tr><tr><td><a href=\"http://details.loinc.org/LOINC/77135-2.html\">77135-2</a></td><td>Glucose [Moles/volume] in Serum, Plasma or Blood</td><td/></tr></table></li></ul></div>"
        },
        "url": "http://cts.nlm.nih.gov/fhir/ValueSet/2.16.840.1.113762.1.4.1045.134",
        "version": "20200307",
        "name": "Glucose lab test",
        "status": "active",
        "date": "2020-03-07T01:00:21-05:00",
        "publisher": "Yale",
        "compose": {
          "include": [
            {
              "system": "http://loinc.org",
              "concept": [
                {
                  "code": "14743-9",
                  "display": "Glucose [Moles/volume] in Capillary blood by Glucometer"
                },
                {
                  "code": "14749-6",
                  "display": "Glucose [Moles/volume] in Serum or Plasma"
                },
                {
                  "code": "14760-3",
                  "display": "Glucose [Moles/volume] in Capillary blood --2 hours post meal"
                },
                {
                  "code": "14770-2",
                  "display": "Fasting glucose [Moles/volume] in Capillary blood by Glucometer"
                },
                {
                  "code": "15074-8",
                  "display": "Glucose [Moles/volume] in Blood"
                },
                {
                  "code": "1556-0",
                  "display": "Fasting glucose [Mass/volume] in Capillary blood"
                },
                {
                  "code": "1557-8",
                  "display": "Fasting glucose [Mass/volume] in Venous blood"
                },
                {
                  "code": "1558-6",
                  "display": "Fasting glucose [Mass/volume] in Serum or Plasma"
                },
                {
                  "code": "2339-0",
                  "display": "Glucose [Mass/volume] in Blood"
                },
                {
                  "code": "2340-8",
                  "display": "Glucose [Mass/volume] in Blood by Automated test strip"
                },
                {
                  "code": "2341-6",
                  "display": "Glucose [Mass/volume] in Blood by Test strip manual"
                },
                {
                  "code": "2345-7",
                  "display": "Glucose [Mass/volume] in Serum or Plasma"
                },
                {
                  "code": "32016-8",
                  "display": "Glucose [Mass/volume] in Capillary blood"
                },
                {
                  "code": "39480-9",
                  "display": "Glucose [Moles/volume] in Venous blood"
                },
                {
                  "code": "39481-7",
                  "display": "Glucose [Moles/volume] in Arterial blood"
                },
                {
                  "code": "40858-3",
                  "display": "Glucose [Mass/volume] in Capillary blood --baseline"
                },
                {
                  "code": "41604-0",
                  "display": "Fasting glucose [Mass/volume] in Capillary blood by Glucometer"
                },
                {
                  "code": "41651-1",
                  "display": "Glucose [Mass/volume] in Arterial blood"
                },
                {
                  "code": "41652-9",
                  "display": "Glucose [Mass/volume] in Venous blood"
                },
                {
                  "code": "41653-7",
                  "display": "Glucose [Mass/volume] in Capillary blood by Glucometer"
                },
                {
                  "code": "51596-5",
                  "display": "Glucose [Moles/volume] in Capillary blood"
                },
                {
                  "code": "59813-6",
                  "display": "Glucose [Moles/volume] in Capillary blood by Glucometer --7 AM specimen"
                },
                {
                  "code": "72516-8",
                  "display": "Glucose [Moles/volume] in Blood by Automated test strip"
                },
                {
                  "code": "74774-1",
                  "display": "Glucose [Mass/volume] in Serum, Plasma or Blood"
                },
                {
                  "code": "77135-2",
                  "display": "Glucose [Moles/volume] in Serum, Plasma or Blood"
                }
              ]
            }
          ]
        }
      },
      "request": {
        "method": "PUT",
        "url": "ValueSet/2.16.840.1.113762.1.4.1045.134/_history/21"
      }
    },
    {
      "resource": {
        "resourceType": "ValueSet",
        "id": "2.16.840.1.113762.1.4.1045.152",
        "meta": {
          "versionId": "18",
          "lastUpdated": "2020-03-07T01:00:21.000-05:00"
        },
        "text": {
          "status": "generated",
          "div": "<div xmlns=\"http://www.w3.org/1999/xhtml\"><h2>Body temperature</h2><p>This value set includes codes from the following code systems:</p><ul><li>Include these codes as defined in <a href=\"http://loinc.org\"><code>http://loinc.org</code></a><table class=\"none\"><tr><td><b>Code</b></td><td><b>Display</b></td></tr><tr><td><a href=\"http://details.loinc.org/LOINC/8310-5.html\">8310-5</a></td><td>Body temperature</td><td/></tr><tr><td><a href=\"http://details.loinc.org/LOINC/8328-7.html\">8328-7</a></td><td>Axillary temperature</td><td/></tr><tr><td><a href=\"http://details.loinc.org/LOINC/8329-5.html\">8329-5</a></td><td>Body temperature - Core</td><td/></tr><tr><td><a href=\"http://details.loinc.org/LOINC/8331-1.html\">8331-1</a></td><td>Oral temperature</td><td/></tr><tr><td><a href=\"http://details.loinc.org/LOINC/8332-9.html\">8332-9</a></td><td>Rectal temperature</td><td/></tr><tr><td><a href=\"http://details.loinc.org/LOINC/8333-7.html\">8333-7</a></td><td>Tympanic membrane temperature</td><td/></tr></table></li></ul></div>"
        },
        "url": "http://cts.nlm.nih.gov/fhir/ValueSet/2.16.840.1.113762.1.4.1045.152",
        "version": "20200307",
        "name": "Body temperature",
        "status": "active",
        "date": "2020-03-07T01:00:21-05:00",
        "publisher": "Yale",
        "compose": {
          "include": [
            {
              "system": "http://loinc.org",
              "concept": [
                {
                  "code": "8310-5",
                  "display": "Body temperature"
                },
                {
                  "code": "8328-7",
                  "display": "Axillary temperature"
                },
                {
                  "code": "8329-5",
                  "display": "Body temperature - Core"
                },
                {
                  "code": "8331-1",
                  "display": "Oral temperature"
                },
                {
                  "code": "8332-9",
                  "display": "Rectal temperature"
                },
                {
                  "code": "8333-7",
                  "display": "Tympanic membrane temperature"
                }
              ]
            }
          ]
        }
      },
      "request": {
        "method": "PUT",
        "url": "ValueSet/2.16.840.1.113762.1.4.1045.152/_history/18"
      }
    },
    {
      "resource": {
        "resourceType": "Patient",
        "id": "ip-EXM529",
        "meta": {
          "profile": [
            "http://hl7.org/fhir/us/core/StructureDefinition/us-core-patient"
          ]
        },
        "extension": [
          {
            "url": "http://hl7.org/fhir/us/core/StructureDefinition/us-core-race",
            "extension": [
              {
                "url": "ombCategory",
                "valueCoding": {
                  "system": "urn:oid:2.16.840.1.113883.6.238",
                  "code": "2106-3",
                  "display": "White"
                }
              }
            ]
          },
          {
            "url": "http://hl7.org/fhir/us/core/StructureDefinition/us-core-ethnicity",
            "extension": [
              {
                "url": "ombCategory",
                "valueCoding": {
                  "system": "urn:oid:2.16.840.1.113883.6.238",
                  "code": "2135-2",
                  "display": "Hispanic or Latino"
                }
              }
            ]
          }
        ],
        "identifier": [
          {
            "use": "usual",
            "type": {
              "coding": [
                {
                  "system": "http://terminology.hl7.org/CodeSystem/v2-0203",
                  "code": "MR",
                  "display": "Medical Record Number"
                }
              ]
            },
            "system": "http://hospital.smarthealthit.org",
            "value": "999999992"
          }
        ],
        "name": [
          {
            "family": "Dere",
            "given": [
              "Ben"
            ]
          }
        ],
        "gender": "male",
        "birthDate": "1944-01-01"
      },
      "request": {
        "method": "PUT",
        "url": "Patient/ip-EXM529"
      }
    },
    {
      "resource": {
        "resourceType": "Measure",
        "id": "measure-EXM529-1.0.000",
        "meta": {
          "versionId": "1",
          "lastUpdated": "2020-02-14T00:00:00.000+00:00",
          "profile": [
            "http://hl7.org/fhir/us/cqfmeasures/StructureDefinition/proportion-measure-cqfm"
          ]
        },
        "text": {
          "status": "generated"
        },
        "contained": [
          {
            "resourceType": "Device",
            "id": "cqf-tooling",
            "meta": {
              "profile": [
                "http://hl7.org/fhir/us/cqfmeasures/StructureDefinition/device-softwaresystem-cqfm"
              ]
            },
            "type": {
              "coding": [
                {
                  "system": "http://hl7.org/fhir/us/cqfmeasures/CodeSystem/software-system-type",
                  "code": "tooling"
                }
              ]
            },
            "version": [
              {
                "value": "1.1.0-SNAPSHOT"
              }
            ]
          }
        ],
        "extension": [
          {
            "url": "http://hl7.org/fhir/us/cqfmeasures/StructureDefinition/cqfm-populationBasis",
            "valueCode": "boolean"
          },
          {
            "url": "http://hl7.org/fhir/us/cqfmeasures/StructureDefinition/cqfm-softwaresystem",
            "valueReference": {
              "reference": "#cqf-tooling"
            }
          }
        ],
        "url": "http://hl7.org/fhir/us/cqfmeasures/Measure/measure-EXM529-FHIR",
        "version": "1.0.000",
        "name": "EXM529",
        "title": "Hospital Core Clinical Data Elements",
        "status": "draft",
        "experimental": true,
        "publisher": "Centers for Medicare & Medicaid Services (CMS)",
        "description": "This is not a measure. This logic is intended to extract electronic clinical data. It is designed to extract the first captured set of vital signs and basic laboratory results obtained on adult Medicare fee-for-service patients admitted to acute care short stay hospitals. These data will be linked with administrative claims data to risk-adjust hospital-level hybrid outcome measures.",
        "useContext": [
          {
            "code": {
              "code": "program"
            },
            "valueCodeableConcept": {
              "text": "eligible-provider"
            }
          }
        ],
        "jurisdiction": [
          {
            "coding": [
              {
                "system": "urn:iso:std:iso:3166",
                "code": "US"
              }
            ]
          }
        ],
        "purpose": "The logic is not meant to guide or alter the care patients receive. The purpose of this CCDE logic is to extract clinical data that are already routinely captured in EHRs among hospitalized adult patients. It is not intended to require that clinical staff perform additional measurements or tests that are not needed for diagnostic assessment or treatment of patients.",
        "copyright": "Limited proprietary coding is contained in these specifications for user convenience. Users of proprietary code sets should obtain all necessary licenses from the owners of the code sets.\n\nCPT(R) contained in the Measure specifications is copyright 2004-2013 American Medical Association. LOINC(R) copyright 2004-2013 Regenstrief Institute, Inc. This material contains SNOMED Clinical Terms(R) (SNOMED CT[R]) copyright 2004-2013 International Health Terminology Standards Development Organisation. ICD-10 copyright 2013 World Health Organization. All Rights Reserved.",
        "effectivePeriod": {
          "start": "2020-01-01",
          "end": "2020-12-31"
        },
        "topic": [
          {
            "coding": [
              {
                "system": "http://loinc.org",
                "code": "57024-2",
                "display": "Health Quality Measure Document"
              }
            ]
          }
        ],
        "library": [
          "http://hl7.org/fhir/us/draftmeasures/Library/library-EXM529-1.0.000"
        ],
        "disclaimer": "The performance Measure is not a clinical guideline and does not establish a standard of medical care, and has not been tested for all potential applications.\n\nTHE MEASURE AND SPECIFICATIONS ARE PROVIDED \"AS IS\" WITHOUT WARRANTY OF ANY KIND.\n \nDue to technical limitations, registered trademarks are indicated by (R) or [R] and unregistered trademarks are indicated by (TM) or [TM].",
        "scoring": {
          "coding": [
            {
              "system": "http://hl7.org/fhir/measure-scoring",
              "code": "proportion"
            }
          ]
        },
        "rationale": "Although we are using the \"proportion\" function in the MAT, hospitals will not report a proportion, ratio, or rate. Instead hospitals will report actual data values for the elements included.\n\nThe intent of this logic is to extract the FIRST set of clinical data elements on patients, from hospital EHRs, and to use the data to risk adjust hospital-level hybrid outcome measures. This work addresses stakeholder concerns that clinical data garnered from patients, and used by clinicians to guide diagnostic decisions and treatment, are preferable to administrative claims data. We are calling the list of data elements for extraction the \"core clinical data elements\". The core clinical data elements are the first set of vital signs and basic laboratory test results captured on adult Medicare fee-for-service patients, age 65 or older, after they arrive at the hospital to which they are subsequently admitted. For example, this first set of data values are often captured in the emergency department or in the pre-operative area sometimes hours before a patient is admitted to that same facility.\n\nThese data elements were selected because they: 1. reflect patients' clinical status when they first present to the hospital; 2. are clinically and statistically relevant to patient outcomes; 3. are consistently obtained on adult inpatients based on current clinical practice; 4. are captured with a standard definition and recorded in a standard format across providers; and 5. are entered in structured fields that are feasibly retrieved from current EHR systems. The core clinical data elements also include some demographic data (such as age and sex). Demographic data are used to link EHR data files with administrative claims data for CMS to calculate results for hospital-level hybrid outcome measures.",
        "clinicalRecommendationStatement": "The logic is not meant to guide or alter the care patients receive. The purpose of this CCDE logic is to extract clinical data that are already routinely captured in EHRs among hospitalized adult patients. It is not intended to require that clinical staff perform additional measurements or tests that are not needed for diagnostic assessment or treatment of patients.",
        "guidance": "This logic guides the user to extract the FIRST captured core clinical data elements for all Medicare fee-for-service patients age 65 or older, (as described by Initial Population field) directly admitted to the hospital or admitted to the same facility after an emergency department stay or surgical procedure.\n\nThe logic supports extraction of the FIRST set of core clinical data elements in two different ways, depending on if the patient was a direct admission:\n\n1. If the patient was a direct admission, the logic supports extraction of the FIRST captured vital signs within 2 hours after the start of the inpatient admission, and the FIRST captured laboratory test results within 24 hours after the start of the inpatient admission.\n2. If the patient has values captured prior to admission, for example from the emergency department or pre-operative or other outpatient area within the hospital, the logic supports extraction of the FIRST captured vital signs and laboratory test results within 24 hours PRIOR to the start of the inpatient admission. All clinical systems used in inpatient and outpatient locations within the hospital facility should be queried when looking for core clinical data element values related to a patient who is subsequently admitted.\n\nValue sets for the laboratory tests represent the LOINC codes currently available for these tests. If the institution is using local codes to capture and store relevant laboratory test data, those sites should map that information to the LOINC code for CCDE reporting.\n\nNOTE: Do not report ALL values on a patient during their entire admission.  Only report the FIRST recorded value for EACH core clinical data element collected in the appropriate timeframe, if available.",
        "group": [
          {
            "id": "group-1",
            "population": [
              {
                "code": {
                  "coding": [
                    {
                      "system": "http://terminology.hl7.org/CodeSystem/measure-population",
                      "code": "initial-population",
                      "display": "Initial Population"
                    }
                  ]
                },
                "description": "All Medicare fee-for-service patients age 65 and older with an inpatient admission (length of stay <365 days) during the measurement period."
              },
              {
                "code": {
                  "coding": [
                    {
                      "system": "http://terminology.hl7.org/CodeSystem/measure-population",
                      "code": "denominator",
                      "display": "Denominator"
                    }
                  ]
                },
                "description": "Same as initial population."
              },
              {
                "code": {
                  "coding": [
                    {
                      "system": "http://terminology.hl7.org/CodeSystem/measure-population",
                      "code": "numerator",
                      "display": "Numerator"
                    }
                  ]
                },
                "description": "For patients in the denominator, report the FIRST value for vital signs captured within the 24 hours prior to the inpatient admission. If no values were captured in the 24 hours prior to the admission (for example, for patients directly admitted to the hospitals) report the first value captured within 2 hours after the start of the inpatient admission. For laboratory test results, report the first captured value in the 24 hours prior to admission. If there are no values in the 24 hours prior to admission, report the first values within 24 hours after the start of the inpatient admission. First values for the following data elements may be captured in the emergency department or other outpatient area within the hospital before a patient is subsequently admitted to the same hospital. First values for these data elements may also be captured on an inpatient unit for directly admitted patients who do not receive care in the emergency department or other hospital outpatient location before admission.\n\nThe core clinical data elements are as follows:\n\nHeart rate\nSystolic blood pressure\nRespiratory rate\nTemperature\nOxygen saturation\nWeight\nHematocrit\nWhite blood cell count\nPotassium\nSodium\nBicarbonate\nCreatinine\nGlucose\n\nNOTE: Do not report ALL values on a patient during their entire admission. Only report the FIRST recorded value for EACH core clinical data element collected in the appropriate timeframe, if available."
              }
            ]
          }
        ],
        "supplementalData": [
          {
            "usage": [
              {
                "coding": [
                  {
                    "system": "http://hl7.org/fhir/measure-data-usage",
                    "code": "supplemental-data"
                  }
                ]
              }
            ]
          },
          {
            "usage": [
              {
                "coding": [
                  {
                    "system": "http://hl7.org/fhir/measure-data-usage",
                    "code": "supplemental-data"
                  }
                ]
              }
            ]
          },
          {
            "usage": [
              {
                "coding": [
                  {
                    "system": "http://hl7.org/fhir/measure-data-usage",
                    "code": "supplemental-data"
                  }
                ]
              }
            ]
          },
          {
            "usage": [
              {
                "coding": [
                  {
                    "system": "http://hl7.org/fhir/measure-data-usage",
                    "code": "supplemental-data"
                  }
                ]
              }
            ]
          }
        ]
      },
      "request": {
        "method": "PUT",
        "url": "Measure/measure-EXM529-1.0.000/_history/1"
      }
    },
    {
      "resource": {
        "resourceType": "ValueSet",
        "id": "2.16.840.1.113762.1.4.1045.114",
        "meta": {
          "versionId": "29",
          "lastUpdated": "2020-03-07T01:00:21.000-05:00"
        },
        "text": {
          "status": "generated",
          "div": "<div xmlns=\"http://www.w3.org/1999/xhtml\"><h2>Hematocrit lab test</h2><p>This value set includes codes from the following code systems:</p><ul><li>Include these codes as defined in <a href=\"http://loinc.org\"><code>http://loinc.org</code></a><table class=\"none\"><tr><td><b>Code</b></td><td><b>Display</b></td></tr><tr><td><a href=\"http://details.loinc.org/LOINC/20570-8.html\">20570-8</a></td><td>Hematocrit [Volume Fraction] of Blood</td><td/></tr><tr><td><a href=\"http://details.loinc.org/LOINC/31100-1.html\">31100-1</a></td><td>Hematocrit [Volume Fraction] of Blood by Impedance</td><td/></tr><tr><td><a href=\"http://details.loinc.org/LOINC/32354-3.html\">32354-3</a></td><td>Hematocrit [Volume Fraction] of Arterial blood</td><td/></tr><tr><td><a href=\"http://details.loinc.org/LOINC/41654-5.html\">41654-5</a></td><td>Hematocrit [Volume Fraction] of Venous blood</td><td/></tr><tr><td><a href=\"http://details.loinc.org/LOINC/41655-2.html\">41655-2</a></td><td>Hematocrit [Volume Fraction] of Mixed venous blood</td><td/></tr><tr><td><a href=\"http://details.loinc.org/LOINC/4544-3.html\">4544-3</a></td><td>Hematocrit [Volume Fraction] of Blood by Automated count</td><td/></tr><tr><td><a href=\"http://details.loinc.org/LOINC/4545-0.html\">4545-0</a></td><td>Hematocrit [Volume Fraction] of Blood by Centrifugation</td><td/></tr><tr><td><a href=\"http://details.loinc.org/LOINC/71829-6.html\">71829-6</a></td><td>Hematocrit [Pure volume fraction] of Venous blood</td><td/></tr><tr><td><a href=\"http://details.loinc.org/LOINC/71830-4.html\">71830-4</a></td><td>Hematocrit [Pure volume fraction] of Mixed venous blood</td><td/></tr><tr><td><a href=\"http://details.loinc.org/LOINC/71832-0.html\">71832-0</a></td><td>Hematocrit [Pure volume fraction] of Arterial blood</td><td/></tr><tr><td><a href=\"http://details.loinc.org/LOINC/71833-8.html\">71833-8</a></td><td>Hematocrit [Pure volume fraction] of Blood by Automated count</td><td/></tr></table></li></ul></div>"
        },
        "url": "http://cts.nlm.nih.gov/fhir/ValueSet/2.16.840.1.113762.1.4.1045.114",
        "version": "20200307",
        "name": "Hematocrit lab test",
        "status": "active",
        "date": "2020-03-07T01:00:21-05:00",
        "publisher": "Yale",
        "compose": {
          "include": [
            {
              "system": "http://loinc.org",
              "concept": [
                {
                  "code": "20570-8",
                  "display": "Hematocrit [Volume Fraction] of Blood"
                },
                {
                  "code": "31100-1",
                  "display": "Hematocrit [Volume Fraction] of Blood by Impedance"
                },
                {
                  "code": "32354-3",
                  "display": "Hematocrit [Volume Fraction] of Arterial blood"
                },
                {
                  "code": "41654-5",
                  "display": "Hematocrit [Volume Fraction] of Venous blood"
                },
                {
                  "code": "41655-2",
                  "display": "Hematocrit [Volume Fraction] of Mixed venous blood"
                },
                {
                  "code": "4544-3",
                  "display": "Hematocrit [Volume Fraction] of Blood by Automated count"
                },
                {
                  "code": "4545-0",
                  "display": "Hematocrit [Volume Fraction] of Blood by Centrifugation"
                },
                {
                  "code": "71829-6",
                  "display": "Hematocrit [Pure volume fraction] of Venous blood"
                },
                {
                  "code": "71830-4",
                  "display": "Hematocrit [Pure volume fraction] of Mixed venous blood"
                },
                {
                  "code": "71832-0",
                  "display": "Hematocrit [Pure volume fraction] of Arterial blood"
                },
                {
                  "code": "71833-8",
                  "display": "Hematocrit [Pure volume fraction] of Blood by Automated count"
                }
              ]
            }
          ]
        }
      },
      "request": {
        "method": "PUT",
        "url": "ValueSet/2.16.840.1.113762.1.4.1045.114/_history/29"
      }
    },
    {
      "resource": {
        "resourceType": "Observation",
        "id": "ip-EXM529-ObsHR1",
        "meta": {
          "profile": [
            "http://hl7.org/fhir/observation"
          ]
        },
        "status": "final",
        "code": {
          "coding": [
            {
              "system": "http://loinc.org",
              "code": "8867-4",
              "display": "Heart rate"
            }
          ]
        },
        "subject": {
          "reference": "Patient/ip-EXM529"
        },
        "effectiveDateTime": "2019-02-16T00:20:00",
        "valueQuantity": {
          "value": 65,
          "unit": "bpm"
        }
      },
      "request": {
        "method": "PUT",
        "url": "Observation/ip-EXM529-ObsHR1"
      }
    },
    {
      "resource": {
        "resourceType": "ValueSet",
        "id": "2.16.840.1.113883.3.666.5.2363",
        "meta": {
          "versionId": "21",
          "lastUpdated": "2020-03-07T01:00:21.000-05:00"
        },
        "text": {
          "status": "generated",
          "div": "<div xmlns=\"http://www.w3.org/1999/xhtml\"><h2>Creatinine lab test</h2><p>This value set includes codes from the following code systems:</p><ul><li>Include these codes as defined in <a href=\"http://loinc.org\"><code>http://loinc.org</code></a><table class=\"none\"><tr><td><b>Code</b></td><td><b>Display</b></td></tr><tr><td><a href=\"http://details.loinc.org/LOINC/14682-9.html\">14682-9</a></td><td>Creatinine [Moles/volume] in Serum or Plasma</td><td/></tr><tr><td><a href=\"http://details.loinc.org/LOINC/21232-4.html\">21232-4</a></td><td>Creatinine [Mass/volume] in Arterial blood</td><td/></tr><tr><td><a href=\"http://details.loinc.org/LOINC/2160-0.html\">2160-0</a></td><td>Creatinine [Mass/volume] in Serum or Plasma</td><td/></tr><tr><td><a href=\"http://details.loinc.org/LOINC/38483-4.html\">38483-4</a></td><td>Creatinine [Mass/volume] in Blood</td><td/></tr><tr><td><a href=\"http://details.loinc.org/LOINC/59826-8.html\">59826-8</a></td><td>Creatinine [Moles/volume] in Blood</td><td/></tr></table></li></ul></div>"
        },
        "url": "http://cts.nlm.nih.gov/fhir/ValueSet/2.16.840.1.113883.3.666.5.2363",
        "version": "20200307",
        "name": "Creatinine lab test",
        "status": "active",
        "date": "2020-03-07T01:00:21-05:00",
        "publisher": "Yale",
        "compose": {
          "include": [
            {
              "system": "http://loinc.org",
              "concept": [
                {
                  "code": "14682-9",
                  "display": "Creatinine [Moles/volume] in Serum or Plasma"
                },
                {
                  "code": "21232-4",
                  "display": "Creatinine [Mass/volume] in Arterial blood"
                },
                {
                  "code": "2160-0",
                  "display": "Creatinine [Mass/volume] in Serum or Plasma"
                },
                {
                  "code": "38483-4",
                  "display": "Creatinine [Mass/volume] in Blood"
                },
                {
                  "code": "59826-8",
                  "display": "Creatinine [Moles/volume] in Blood"
                }
              ]
            }
          ]
        }
      },
      "request": {
        "method": "PUT",
        "url": "ValueSet/2.16.840.1.113883.3.666.5.2363/_history/21"
      }
    },
    {
      "resource": {
        "resourceType": "ValueSet",
        "id": "2.16.840.1.113762.1.4.1111.143",
        "url": "http://cts.nlm.nih.gov/fhir/ValueSet/2.16.840.1.113762.1.4.1111.143",
        "title": "Observation Services",
        "status": "active",
        "publisher": "The Joint Commission",
        "compose": {
          "include": [
            {
              "system": "http://snomed.info/sct",
              "version": "2019-09",
              "concept": [
                {
                  "code": "448851000124103",
                  "display": "Hospital admission from observation unit (procedure)"
                },
                {
                  "code": "448951000124107",
                  "display": "Admission to observation unit (procedure)"
                },
                {
                  "code": "76464004",
                  "display": "Hospital admission, for observation (procedure)"
                }
              ]
            }
          ]
        }
      },
      "request": {
        "method": "PUT",
        "url": "ValueSet/2.16.840.1.113762.1.4.1111.143"
      }
    },
    {
      "resource": {
        "resourceType": "ValueSet",
        "id": "2.16.840.1.113762.1.4.1045.159",
        "meta": {
          "versionId": "17",
          "lastUpdated": "2020-03-07T01:00:21.000-05:00"
        },
        "text": {
          "status": "generated",
          "div": "<div xmlns=\"http://www.w3.org/1999/xhtml\"><h2>Body weight</h2><p>This value set includes codes from the following code systems:</p><ul><li>Include these codes as defined in <a href=\"http://loinc.org\"><code>http://loinc.org</code></a><table class=\"none\"><tr><td><b>Code</b></td><td><b>Display</b></td></tr><tr><td><a href=\"http://details.loinc.org/LOINC/29463-7.html\">29463-7</a></td><td>Body weight</td><td/></tr><tr><td><a href=\"http://details.loinc.org/LOINC/3141-9.html\">3141-9</a></td><td>Body weight Measured</td><td/></tr><tr><td><a href=\"http://details.loinc.org/LOINC/3142-7.html\">3142-7</a></td><td>Body weight Stated</td><td/></tr><tr><td><a href=\"http://details.loinc.org/LOINC/8341-0.html\">8341-0</a></td><td>Dry body weight Measured</td><td/></tr><tr><td><a href=\"http://details.loinc.org/LOINC/8350-1.html\">8350-1</a></td><td>Body weight Measured --with clothes</td><td/></tr><tr><td><a href=\"http://details.loinc.org/LOINC/8351-9.html\">8351-9</a></td><td>Body weight Measured --without clothes</td><td/></tr></table></li></ul></div>"
        },
        "url": "http://cts.nlm.nih.gov/fhir/ValueSet/2.16.840.1.113762.1.4.1045.159",
        "version": "20200307",
        "name": "Body weight",
        "status": "active",
        "date": "2020-03-07T01:00:21-05:00",
        "publisher": "Yale",
        "compose": {
          "include": [
            {
              "system": "http://loinc.org",
              "concept": [
                {
                  "code": "29463-7",
                  "display": "Body weight"
                },
                {
                  "code": "3141-9",
                  "display": "Body weight Measured"
                },
                {
                  "code": "3142-7",
                  "display": "Body weight Stated"
                },
                {
                  "code": "8341-0",
                  "display": "Dry body weight Measured"
                },
                {
                  "code": "8350-1",
                  "display": "Body weight Measured --with clothes"
                },
                {
                  "code": "8351-9",
                  "display": "Body weight Measured --without clothes"
                }
              ]
            }
          ]
        }
      },
      "request": {
        "method": "PUT",
        "url": "ValueSet/2.16.840.1.113762.1.4.1045.159/_history/17"
      }
    },
    {
      "resource": {
        "resourceType": "Observation",
        "id": "ip-EXM529-ObsWeight1",
        "meta": {
          "profile": [
            "http://hl7.org/fhir/observation"
          ]
        },
        "status": "final",
        "code": {
          "coding": [
            {
              "system": "http://loinc.org",
              "code": "29463-7",
              "display": "Body weight"
            }
          ]
        },
        "subject": {
          "reference": "Patient/ip-EXM529"
        },
        "effectiveDateTime": "2019-01-16T00:16:00",
        "valueQuantity": {
          "value": 150,
          "unit": "lbs"
        }
      },
      "request": {
        "method": "PUT",
        "url": "Observation/ip-EXM529-ObsWeight1"
      }
    },
    {
      "resource": {
        "resourceType": "Library",
        "id": "library-SupplementalDataElements-2.0.0",
        "text": {
          "status": "generated",
          "div": "<div xmlns=\"http://www.w3.org/1999/xhtml\"><table class=\"grid dict\"><tr><th scope=\"row\"><b>Id: </b></th><td style=\"padding-left: 25px; padding-right: 25px;\">library-SupplementalDataElements-2.0.0</td></tr><tr><th scope=\"row\"><b>Type: </b></th><td style=\"padding-right: 25px;\"> logic-library </td></tr><tr><th scope=\"row\"><b>Version: </b></th><td style=\"padding-left: 25px; padding-right: 25px;\">2.0.0</td></tr><tr><th scope=\"row\"><b>Status: </b></th><td style=\"padding-left: 25px; padding-right: 25px;\">active</td></tr><tr style=\"vertical-align: top;\"><th rowspan=\"1\" scope=\"row\"><b>Related: </b></th><td style=\"padding-left: 25px; padding-right: 25px;\"><p style=\"margin-bottom: 5px;\"><b>type: </b><span>depends-on</span></p><p style=\"margin-bottom: 5px;\"><b>Resource: </b><br/><span>http://fhir.org/guides/dbcg/connectathon/Library/library-FHIRHelpers|4.0.1</span></p></td></tr><tr style=\"vertical-align: top;\"><th rowspan=\"1\" scope=\"row\"><b>Data Requirements: </b></th><td style=\"padding-left: 25px; padding-right: 25px;\"><div><p style=\"margin-bottom: 5px;\"><b>type: </b><span>Coverage</span></p><p style=\"margin-bottom: 5px;\"><b>code filter:</b><br/><span style=\"padding-left: 25px;\"><b>path: </b><span>type</span></span><br/><span style=\"padding-left: 25px;\"><b>valueset: </b><span>http://cts.nlm.nih.gov/fhir/ValueSet/2.16.840.1.114222.4.11.3591</span></span></p></div></td></tr><tr style=\"vertical-align: top;\"><th scope=\"row\"><b>Content: </b></th><td style=\"padding-left: 25px; padding-right: 25px;\"><b>type: </b><span>text/cql</span></td></tr><tr><td colspan=\"2\" style=\"padding-left: 25px; padding-right: 25px;\"><pre><code class=\"language-cql\">library SupplementalDataElements version '2.0.0'\n\nusing FHIR version '4.0.1'\n\ninclude FHIRHelpers version '4.0.1' called FHIRHelpers\n\nvalueset &quot;ONC Administrative Sex&quot;: 'http://cts.nlm.nih.gov/fhir/ValueSet/2.16.840.1.113762.1.4.1'\nvalueset &quot;Race&quot;: 'http://cts.nlm.nih.gov/fhir/ValueSet/2.16.840.1.114222.4.11.836'\nvalueset &quot;Ethnicity&quot;: 'http://cts.nlm.nih.gov/fhir/ValueSet/2.16.840.1.114222.4.11.837'\nvalueset &quot;Payer&quot;: 'http://cts.nlm.nih.gov/fhir/ValueSet/2.16.840.1.114222.4.11.3591'\n\ncontext Patient\n\ndefine &quot;SDE Ethnicity&quot;:\n  (flatten (\n    Patient.extension Extension\n      where Extension.url = 'http://hl7.org/fhir/us/core/StructureDefinition/us-core-ethnicity'\n        return Extension.extension\n  )) E\n    where E.url = 'ombCategory'\n      or E.url = 'detailed'\n    return E.value as Coding\n\ndefine &quot;SDE Payer&quot;:\n    [Coverage: type in &quot;Payer&quot;] Payer\n      return {\n        code: Payer.type,\n        period: Payer.period\n      }\n\ndefine &quot;SDE Race&quot;:\n  (flatten (\n    Patient.extension Extension\n      where Extension.url = 'http://hl7.org/fhir/us/core/StructureDefinition/us-core-race'\n        return Extension.extension\n  )) E\n    where E.url = 'ombCategory'\n      or E.url = 'detailed'\n    return E.value as Coding\n\ndefine &quot;SDE Sex&quot;:\n  case\n    when Patient.gender = 'male' then Code { code: 'M', system: 'http://hl7.org/fhir/v3/AdministrativeGender', display: 'Male' }\n    when Patient.gender = 'female' then Code { code: 'F', system: 'http://hl7.org/fhir/v3/AdministrativeGender', display: 'Female' }\n    else null\n  end\n</code></pre>\n                    \n                    \n                </td>\n            </tr>\n        \n    </table>\n</div>"
        },
        "contained": [
          {
            "resourceType": "Device",
            "id": "cqf-tooling",
            "meta": {
              "profile": [
                "http://hl7.org/fhir/us/cqfmeasures/StructureDefinition/device-softwaresystem-cqfm"
              ]
            },
            "type": {
              "coding": [
                {
                  "system": "http://hl7.org/fhir/us/cqfmeasures/CodeSystem/software-system-type",
                  "code": "tooling"
                }
              ]
            },
            "version": [
              {
                "value": "1.1.0-SNAPSHOT"
              }
            ]
          }
        ],
        "extension": [
          {
            "url": "http://hl7.org/fhir/us/cqfmeasures/StructureDefinition/cqfm-softwaresystem",
            "valueReference": {
              "reference": "#cqf-tooling"
            }
          }
        ],
        "version": "2.0.0",
        "name": "SupplementalDataElements",
        "status": "active",
        "experimental": true,
        "type": {
          "coding": [
            {
              "system": "http://terminology.hl7.org/CodeSystem/library-type",
              "code": "logic-library"
            }
          ]
        },
        "relatedArtifact": [
          {
            "type": "depends-on",
            "resource": "http://fhir.org/guides/dbcg/connectathon/Library/library-FHIRHelpers|4.0.1"
          }
        ],
        "dataRequirement": [
          {
            "type": "Coverage",
            "codeFilter": [
              {
                "path": "type",
                "valueSet": "http://cts.nlm.nih.gov/fhir/ValueSet/2.16.840.1.114222.4.11.3591"
              }
            ]
          }
        ],
        "content": [
          {
            "contentType": "application/elm+xml",
            "data": ""
          },
          {
            "contentType": "text/cql",
            "data": ""
          }
        ]
      },
      "request": {
        "method": "PUT",
        "url": "Library/library-SupplementalDataElements-2.0.0"
      }
    },
    {
      "resource": {
        "resourceType": "Observation",
        "id": "ip-EXM529-ObsCreat1",
        "meta": {
          "profile": [
            "http://hl7.org/fhir/observation"
          ]
        },
        "status": "final",
        "code": {
          "coding": [
            {
              "system": "http://loinc.org",
              "code": "14682-9",
              "display": "Creatinine [Moles/volume] in Serum or Plasma"
            }
          ]
        },
        "subject": {
          "reference": "Patient/ip-EXM529"
        },
        "issued": "2019-02-16T00:15:00",
        "valueQuantity": {
          "value": 122,
          "unit": "umol/L",
          "system": "http://snomed.info/sct",
          "code": "258814008"
        }
      },
      "request": {
        "method": "PUT",
        "url": "Observation/ip-EXM529-ObsCreat1"
      }
    },
    {
      "resource": {
        "resourceType": "Observation",
        "id": "ip-EXM529-ObsWeight2",
        "meta": {
          "profile": [
            "http://hl7.org/fhir/observation"
          ]
        },
        "status": "final",
        "code": {
          "coding": [
            {
              "system": "http://loinc.org",
              "code": "29463-7",
              "display": "Body weight"
            }
          ]
        },
        "subject": {
          "reference": "Patient/ip-EXM529"
        },
        "effectiveDateTime": "2019-01-16T00:12:00",
        "valueQuantity": {
          "value": 152,
          "unit": "lbs"
        }
      },
      "request": {
        "method": "PUT",
        "url": "Observation/ip-EXM529-ObsWeight2"
      }
    },
    {
      "resource": {
        "resourceType": "ValueSet",
        "id": "2.16.840.1.113762.1.4.1",
        "url": "http://cts.nlm.nih.gov/fhir/ValueSet/2.16.840.1.113762.1.4.1",
        "identifier": [
          {
            "system": "urn:ietf:rfc:3986",
            "value": "2.16.840.1.113762.1.4.1"
          }
        ],
        "version": "20150331",
        "name": "ONCAdministrativeSex",
        "title": "ONC Administrative Sex",
        "status": "active",
        "publisher": "NLM",
        "compose": {
          "include": [
            {
              "system": "http://hl7.org/fhir/v3/AdministrativeGender",
              "version": "HL7V3.0_2017-07",
              "concept": [
                {
                  "code": "F",
                  "display": "Female"
                },
                {
                  "code": "M",
                  "display": "Male"
                }
              ]
            }
          ]
        }
      },
      "request": {
        "method": "PUT",
        "url": "ValueSet/2.16.840.1.113762.1.4.1"
      }
    },
    {
      "resource": {
        "resourceType": "Observation",
        "id": "ip-EXM529-ObsCreat2",
        "meta": {
          "profile": [
            "http://hl7.org/fhir/observation"
          ]
        },
        "status": "final",
        "code": {
          "coding": [
            {
              "system": "http://loinc.org",
              "code": "14682-9",
              "display": "Creatinine [Moles/volume] in Serum or Plasma"
            }
          ]
        },
        "subject": {
          "reference": "Patient/ip-EXM529"
        },
        "issued": "2019-02-16T00:10:00",
        "valueQuantity": {
          "value": 122,
          "unit": "umol/L",
          "system": "http://snomed.info/sct",
          "code": "258814008"
        }
      },
      "request": {
        "method": "PUT",
        "url": "Observation/ip-EXM529-ObsCreat2"
      }
    },
    {
      "resource": {
        "resourceType": "ValueSet",
        "id": "2.16.840.1.114222.4.11.3591",
        "url": "http://cts.nlm.nih.gov/fhir/ValueSet/2.16.840.1.114222.4.11.3591",
        "identifier": [
          {
            "system": "urn:ietf:rfc:3986",
            "value": "2.16.840.1.114222.4.11.3591"
          }
        ],
        "version": "20180718",
        "name": "Payer",
        "title": "Payer",
        "status": "active",
        "publisher": "NLM",
        "compose": {
          "include": [
            {
              "system": "http://www.phdsc.org/standards/pdfs/SourceofPaymentTypologyVersion6FINALSeptember2015.pdf",
              "version": "8.0",
              "concept": [
                {
                  "code": "1",
                  "display": "MEDICARE"
                },
                {
                  "code": "11",
                  "display": "Medicare (Managed Care)"
                },
                {
                  "code": "111",
                  "display": "Medicare HMO"
                },
                {
                  "code": "112",
                  "display": "Medicare PPO"
                },
                {
                  "code": "113",
                  "display": "Medicare POS"
                },
                {
                  "code": "119",
                  "display": "Medicare Managed Care Other"
                },
                {
                  "code": "12",
                  "display": "Medicare (Non-managed Care)"
                },
                {
                  "code": "121",
                  "display": "Medicare FFS"
                },
                {
                  "code": "122",
                  "display": "Medicare Drug Benefit"
                },
                {
                  "code": "123",
                  "display": "Medicare Medical Savings Account (MSA)"
                },
                {
                  "code": "129",
                  "display": "Medicare Non-managed Care Other"
                },
                {
                  "code": "13",
                  "display": "Medicare Hospice"
                },
                {
                  "code": "14",
                  "display": "Dual Eligibility Medicare/Medicaid Organization"
                },
                {
                  "code": "19",
                  "display": "Medicare Other"
                },
                {
                  "code": "191",
                  "display": "Medicare Pharmacy Benefit Manager"
                },
                {
                  "code": "2",
                  "display": "MEDICAID"
                },
                {
                  "code": "21",
                  "display": "Medicaid (Managed Care)"
                },
                {
                  "code": "211",
                  "display": "Medicaid HMO"
                },
                {
                  "code": "212",
                  "display": "Medicaid PPO"
                },
                {
                  "code": "213",
                  "display": "Medicaid PCCM (Primary Care Case Management)"
                },
                {
                  "code": "219",
                  "display": "Medicaid Managed Care Other"
                },
                {
                  "code": "22",
                  "display": "Medicaid (Non-managed Care Plan)"
                },
                {
                  "code": "23",
                  "display": "Medicaid/SCHIP"
                },
                {
                  "code": "25",
                  "display": "Medicaid - Out of State"
                },
                {
                  "code": "26",
                  "display": "Medicaid -- Long Term Care"
                },
                {
                  "code": "29",
                  "display": "Medicaid Other"
                },
                {
                  "code": "291",
                  "display": "Medicaid Pharmacy Benefit Manager"
                },
                {
                  "code": "299",
                  "display": "Medicaid - Dental"
                },
                {
                  "code": "3",
                  "display": "OTHER GOVERNMENT (Federal/State/Local) (excluding Department of Corrections)"
                },
                {
                  "code": "31",
                  "display": "Department of Defense"
                },
                {
                  "code": "311",
                  "display": "TRICARE (CHAMPUS)"
                },
                {
                  "code": "3111",
                  "display": "TRICARE Prime--HMO"
                },
                {
                  "code": "3112",
                  "display": "TRICARE Extra--PPO"
                },
                {
                  "code": "3113",
                  "display": "TRICARE Standard - Fee For Service"
                },
                {
                  "code": "3114",
                  "display": "TRICARE For Life--Medicare Supplement"
                },
                {
                  "code": "3115",
                  "display": "TRICARE Reserve Select"
                },
                {
                  "code": "3116",
                  "display": "Uniformed Services Family Health Plan (USFHP) -- HMO"
                },
                {
                  "code": "3119",
                  "display": "Department of Defense - (other)"
                },
                {
                  "code": "312",
                  "display": "Military Treatment Facility"
                },
                {
                  "code": "3121",
                  "display": "Enrolled Prime--HMO"
                },
                {
                  "code": "3122",
                  "display": "Non-enrolled Space Available"
                },
                {
                  "code": "3123",
                  "display": "TRICARE For Life (TFL)"
                },
                {
                  "code": "313",
                  "display": "Dental --Stand Alone"
                },
                {
                  "code": "32",
                  "display": "Department of Veterans Affairs"
                },
                {
                  "code": "321",
                  "display": "Veteran care--Care provided to Veterans"
                },
                {
                  "code": "3211",
                  "display": "Direct Care--Care provided in VA facilities"
                },
                {
                  "code": "3212",
                  "display": "Indirect Care--Care provided outside VA facilities"
                },
                {
                  "code": "32121",
                  "display": "Fee Basis"
                },
                {
                  "code": "32122",
                  "display": "Foreign Fee/Foreign Medical Program (FMP)"
                },
                {
                  "code": "32123",
                  "display": "Contract Nursing Home/Community Nursing Home"
                },
                {
                  "code": "32124",
                  "display": "State Veterans Home"
                },
                {
                  "code": "32125",
                  "display": "Sharing Agreements"
                },
                {
                  "code": "32126",
                  "display": "Other Federal Agency"
                },
                {
                  "code": "32127",
                  "display": "Dental Care"
                },
                {
                  "code": "32128",
                  "display": "Vision Care"
                },
                {
                  "code": "322",
                  "display": "Non-veteran care"
                },
                {
                  "code": "3221",
                  "display": "Civilian Health and Medical Program for the VA (CHAMPVA)"
                },
                {
                  "code": "3222",
                  "display": "Spina Bifida Health Care Program (SB)"
                },
                {
                  "code": "3223",
                  "display": "Children of Women Vietnam Veterans (CWVV)"
                },
                {
                  "code": "3229",
                  "display": "Other non-veteran care"
                },
                {
                  "code": "33",
                  "display": "Indian Health Service or Tribe"
                },
                {
                  "code": "331",
                  "display": "Indian Health Service -- Regular"
                },
                {
                  "code": "332",
                  "display": "Indian Health Service -- Contract"
                },
                {
                  "code": "333",
                  "display": "Indian Health Service - Managed Care"
                },
                {
                  "code": "334",
                  "display": "Indian Tribe - Sponsored Coverage"
                },
                {
                  "code": "34",
                  "display": "HRSA Program"
                },
                {
                  "code": "341",
                  "display": "Title V (MCH Block Grant)"
                },
                {
                  "code": "342",
                  "display": "Migrant Health Program"
                },
                {
                  "code": "343",
                  "display": "Ryan White Act"
                },
                {
                  "code": "349",
                  "display": "Other"
                },
                {
                  "code": "35",
                  "display": "Black Lung"
                },
                {
                  "code": "36",
                  "display": "State Government"
                },
                {
                  "code": "361",
                  "display": "State SCHIP program (codes for individual states)"
                },
                {
                  "code": "362",
                  "display": "Specific state programs (list/ local code)"
                },
                {
                  "code": "369",
                  "display": "State, not otherwise specified (other state)"
                },
                {
                  "code": "37",
                  "display": "Local Government"
                },
                {
                  "code": "371",
                  "display": "Local - Managed care"
                },
                {
                  "code": "3711",
                  "display": "HMO"
                },
                {
                  "code": "3712",
                  "display": "PPO"
                },
                {
                  "code": "3713",
                  "display": "POS"
                },
                {
                  "code": "372",
                  "display": "FFS/Indemnity"
                },
                {
                  "code": "379",
                  "display": "Local, not otherwise specified (other local, county)"
                },
                {
                  "code": "38",
                  "display": "Other Government (Federal, State, Local not specified)"
                },
                {
                  "code": "381",
                  "display": "Federal, State, Local not specified managed care"
                },
                {
                  "code": "3811",
                  "display": "Federal, State, Local not specified - HMO"
                },
                {
                  "code": "3812",
                  "display": "Federal, State, Local not specified - PPO"
                },
                {
                  "code": "3813",
                  "display": "Federal, State, Local not specified - POS"
                },
                {
                  "code": "3819",
                  "display": "Federal, State, Local not specified - not specified managed care"
                },
                {
                  "code": "382",
                  "display": "Federal, State, Local not specified - FFS"
                },
                {
                  "code": "389",
                  "display": "Federal, State, Local not specified - Other"
                },
                {
                  "code": "39",
                  "display": "Other Federal"
                },
                {
                  "code": "391",
                  "display": "Federal Employee Health Plan - Use when known"
                },
                {
                  "code": "4",
                  "display": "DEPARTMENTS OF CORRECTIONS"
                },
                {
                  "code": "41",
                  "display": "Corrections Federal"
                },
                {
                  "code": "42",
                  "display": "Corrections State"
                },
                {
                  "code": "43",
                  "display": "Corrections Local"
                },
                {
                  "code": "44",
                  "display": "Corrections Unknown Level"
                },
                {
                  "code": "5",
                  "display": "PRIVATE HEALTH INSURANCE"
                },
                {
                  "code": "51",
                  "display": "Managed Care (Private)"
                },
                {
                  "code": "511",
                  "display": "Commercial Managed Care - HMO"
                },
                {
                  "code": "512",
                  "display": "Commercial Managed Care - PPO"
                },
                {
                  "code": "513",
                  "display": "Commercial Managed Care - POS"
                },
                {
                  "code": "514",
                  "display": "Exclusive Provider Organization"
                },
                {
                  "code": "515",
                  "display": "Gatekeeper PPO (GPPO)"
                },
                {
                  "code": "516",
                  "display": "Commercial Managed Care - Pharmacy Benefit Manager"
                },
                {
                  "code": "517",
                  "display": "Commercial Managed Care - Dental"
                },
                {
                  "code": "519",
                  "display": "Managed Care, Other (non HMO)"
                },
                {
                  "code": "52",
                  "display": "Private Health Insurance - Indemnity"
                },
                {
                  "code": "521",
                  "display": "Commercial Indemnity"
                },
                {
                  "code": "522",
                  "display": "Self-insured (ERISA) Administrative Services Only (ASO) plan"
                },
                {
                  "code": "523",
                  "display": "Medicare supplemental policy (as second payer)"
                },
                {
                  "code": "524",
                  "display": "Indemnity Insurance - Dental"
                },
                {
                  "code": "529",
                  "display": "Private health insurance--other commercial Indemnity"
                },
                {
                  "code": "53",
                  "display": "Managed Care (private) or private health insurance (indemnity), not otherwise specified"
                },
                {
                  "code": "54",
                  "display": "Organized Delivery System"
                },
                {
                  "code": "55",
                  "display": "Small Employer Purchasing Group"
                },
                {
                  "code": "56",
                  "display": "Specialized Stand Alone Plan"
                },
                {
                  "code": "561",
                  "display": "Dental"
                },
                {
                  "code": "562",
                  "display": "Vision"
                },
                {
                  "code": "59",
                  "display": "Other Private Insurance"
                },
                {
                  "code": "6",
                  "display": "BLUE CROSS/BLUE SHIELD"
                },
                {
                  "code": "61",
                  "display": "BC Managed Care"
                },
                {
                  "code": "611",
                  "display": "BC Managed Care -- HMO"
                },
                {
                  "code": "612",
                  "display": "BC Managed Care -- PPO"
                },
                {
                  "code": "613",
                  "display": "BC Managed Care -- POS"
                },
                {
                  "code": "614",
                  "display": "BC Managed Care - Dental"
                },
                {
                  "code": "619",
                  "display": "BC Managed Care -- Other"
                },
                {
                  "code": "62",
                  "display": "BC Insurance Indemnity"
                },
                {
                  "code": "621",
                  "display": "BC Indemnity"
                },
                {
                  "code": "622",
                  "display": "BC Self-insured (ERISA) Administrative Services Only (ASO)Plan"
                },
                {
                  "code": "623",
                  "display": "BC Medicare Supplemental Plan"
                },
                {
                  "code": "629",
                  "display": "BC Indemnity - Dental"
                },
                {
                  "code": "7",
                  "display": "MANAGED CARE, UNSPECIFIED (to be used only if one can't distinguish public from private)"
                },
                {
                  "code": "71",
                  "display": "HMO"
                },
                {
                  "code": "72",
                  "display": "PPO"
                },
                {
                  "code": "73",
                  "display": "POS"
                },
                {
                  "code": "79",
                  "display": "Other Managed Care"
                },
                {
                  "code": "8",
                  "display": "NO PAYMENT from an Organization/Agency/Program/Private Payer Listed"
                },
                {
                  "code": "81",
                  "display": "Self-pay (Includes applicants for insurance and Medicaid applicants)"
                },
                {
                  "code": "82",
                  "display": "No Charge"
                },
                {
                  "code": "821",
                  "display": "Charity"
                },
                {
                  "code": "822",
                  "display": "Professional Courtesy"
                },
                {
                  "code": "823",
                  "display": "Research/Clinical Trial"
                },
                {
                  "code": "83",
                  "display": "Refusal to Pay/Bad Debt"
                },
                {
                  "code": "84",
                  "display": "Hill Burton Free Care"
                },
                {
                  "code": "85",
                  "display": "Research/Donor"
                },
                {
                  "code": "89",
                  "display": "No Payment, Other"
                },
                {
                  "code": "9",
                  "display": "MISCELLANEOUS/OTHER"
                },
                {
                  "code": "91",
                  "display": "Foreign National"
                },
                {
                  "code": "92",
                  "display": "Other (Non-government)"
                },
                {
                  "code": "93",
                  "display": "Disability Insurance"
                },
                {
                  "code": "94",
                  "display": "Long-term Care Insurance"
                },
                {
                  "code": "95",
                  "display": "Worker's Compensation"
                },
                {
                  "code": "951",
                  "display": "Worker's Comp HMO"
                },
                {
                  "code": "953",
                  "display": "Worker's Comp Fee-for-Service"
                },
                {
                  "code": "954",
                  "display": "Worker's Comp Other Managed Care"
                },
                {
                  "code": "959",
                  "display": "Worker's Comp, Other unspecified"
                },
                {
                  "code": "96",
                  "display": "Auto Insurance (includes no fault)"
                },
                {
                  "code": "97",
                  "display": "Legal Liability / Liability Insurance"
                },
                {
                  "code": "98",
                  "display": "Other specified but not otherwise classifiable (includes Hospice - Unspecified plan)"
                },
                {
                  "code": "99",
                  "display": "No Typology Code available for payment source"
                },
                {
                  "code": "9999",
                  "display": "Unavailable / No Payer Specified / Blank"
                }
              ]
            }
          ]
        }
      },
      "request": {
        "method": "PUT",
        "url": "ValueSet/2.16.840.1.114222.4.11.3591"
      }
    },
    {
      "resource": {
        "resourceType": "Library",
        "id": "library-MATGlobalCommonFunctions-5.0.000",
        "text": {
          "status": "generated",
          "div": "<div xmlns=\"http://www.w3.org/1999/xhtml\"><table class=\"grid dict\"><tr><th scope=\"row\"><b>Id: </b></th><td style=\"padding-left: 25px; padding-right: 25px;\">library-MATGlobalCommonFunctions-5.0.000</td></tr><tr><th scope=\"row\"><b>Type: </b></th><td style=\"padding-right: 25px;\"> logic-library </td></tr><tr><th scope=\"row\"><b>Version: </b></th><td style=\"padding-left: 25px; padding-right: 25px;\">5.0.000</td></tr><tr><th scope=\"row\"><b>Status: </b></th><td style=\"padding-left: 25px; padding-right: 25px;\">active</td></tr><tr style=\"vertical-align: top;\"><th rowspan=\"1\" scope=\"row\"><b>Related: </b></th><td style=\"padding-left: 25px; padding-right: 25px;\"><p style=\"margin-bottom: 5px;\"><b>type: </b><span>depends-on</span></p><p style=\"margin-bottom: 5px;\"><b>Resource: </b><br/><span>http://fhir.org/guides/dbcg/connectathon/Library/library-FHIRHelpers|4.0.1</span></p></td></tr><tr style=\"vertical-align: top;\"><th rowspan=\"9\" scope=\"row\"><b>Data Requirements: </b></th><td style=\"padding-left: 25px; padding-right: 25px;\"><div><p style=\"margin-bottom: 5px;\"><b>type: </b><span>Encounter</span></p><p style=\"margin-bottom: 5px;\"><b>code filter:</b><br/><span style=\"padding-left: 25px;\"><b>path: </b><span>type</span></span><br/><span style=\"padding-left: 25px;\"><b>valueset: </b><span>http://cts.nlm.nih.gov/fhir/ValueSet/2.16.840.1.113883.3.666.5.307</span></span></p></div></td></tr><tr style=\"vertical-align: top;\"><td style=\"padding-left: 25px; padding-right: 25px;\"><div><p style=\"margin-bottom: 5px;\"><b>type: </b><span>Encounter</span></p><p style=\"margin-bottom: 5px;\"><b>code filter:</b><br/><span style=\"padding-left: 25px;\"><b>path: </b><span>type</span></span><br/><span style=\"padding-left: 25px;\"><b>valueset: </b><span>http://cts.nlm.nih.gov/fhir/ValueSet/2.16.840.1.113883.3.117.1.7.1.292</span></span></p></div></td></tr><tr style=\"vertical-align: top;\"><td style=\"padding-left: 25px; padding-right: 25px;\"><div><p style=\"margin-bottom: 5px;\"><b>type: </b><span>Encounter</span></p><p style=\"margin-bottom: 5px;\"><b>code filter:</b><br/><span style=\"padding-left: 25px;\"><b>path: </b><span>type</span></span><br/><span style=\"padding-left: 25px;\"><b>valueset: </b><span>http://cts.nlm.nih.gov/fhir/ValueSet/2.16.840.1.113762.1.4.1111.143</span></span></p></div></td></tr><tr style=\"vertical-align: top;\"><td style=\"padding-left: 25px; padding-right: 25px;\"><div><p style=\"margin-bottom: 5px;\"><b>type: </b><span>Encounter</span></p><p style=\"margin-bottom: 5px;\"><b>code filter:</b><br/><span style=\"padding-left: 25px;\"><b>path: </b><span>type</span></span><br/><span style=\"padding-left: 25px;\"><b>valueset: </b><span>http://cts.nlm.nih.gov/fhir/ValueSet/2.16.840.1.113883.3.117.1.7.1.292</span></span></p></div></td></tr><tr style=\"vertical-align: top;\"><td style=\"padding-left: 25px; padding-right: 25px;\"><div><p style=\"margin-bottom: 5px;\"><b>type: </b><span>Condition</span></p></div></td></tr><tr style=\"vertical-align: top;\"><td style=\"padding-left: 25px; padding-right: 25px;\"><div><p style=\"margin-bottom: 5px;\"><b>type: </b><span>Condition</span></p></div></td></tr><tr style=\"vertical-align: top;\"><td style=\"padding-left: 25px; padding-right: 25px;\"><div><p style=\"margin-bottom: 5px;\"><b>type: </b><span>Location</span></p></div></td></tr><tr style=\"vertical-align: top;\"><td style=\"padding-left: 25px; padding-right: 25px;\"><div><p style=\"margin-bottom: 5px;\"><b>type: </b><span>Provenance</span></p><p style=\"margin-bottom: 5px;\"><b>code filter:</b><br/><span style=\"padding-left: 25px;\"><b>path: </b><span>target</span></span></p></div></td></tr><tr style=\"vertical-align: top;\"><td style=\"padding-left: 25px; padding-right: 25px;\"><div><p style=\"margin-bottom: 5px;\"><b>type: </b><span>Medication</span></p></div></td></tr><tr style=\"vertical-align: top;\"><th scope=\"row\"><b>Content: </b></th><td style=\"padding-left: 25px; padding-right: 25px;\"><b>type: </b><span>text/cql</span></td></tr><tr><td colspan=\"2\" style=\"padding-left: 25px; padding-right: 25px;\"><pre><code class=\"language-cql\">library MATGlobalCommonFunctions version '5.0.000'\n\nusing FHIR version '4.0.1'\n\ninclude FHIRHelpers version '4.0.1' called FHIRHelpers\n\ncodesystem &quot;LOINC&quot;: 'http://loinc.org'\ncodesystem &quot;SNOMEDCT&quot;: 'http://snomed.info/sct/731000124108'\ncodesystem &quot;RoleCode&quot;: 'http://hl7.org/fhir/v3/RoleCode'\ncodesystem &quot;Diagnosis Role&quot;: 'http://terminology.hl7.org/CodeSystem/diagnosis-role'\ncodesystem &quot;RequestIntent&quot;: 'http://terminology.hl7.org/CodeSystem/request-intent'\ncodesystem &quot;MedicationRequestCategory&quot;: 'http://terminology.hl7.org/CodeSystem/medicationrequest-category'\ncodesystem &quot;ConditionClinicalStatusCodes&quot;: 'http://terminology.hl7.org/CodeSystem/condition-clinical'\ncodesystem &quot;ConditionVerificationStatusCodes&quot;: 'http://terminology.hl7.org/CodeSystem/condition-verification'\ncodesystem &quot;AllergyIntoleranceClinicalStatusCodes&quot;: 'http://terminology.hl7.org/CodeSystem/allergyintolerance-clinical'\ncodesystem &quot;AllergyIntoleranceVerificationStatusCodes&quot;: 'http://terminology.hl7.org/CodeSystem/allergyintolerance-verification'\n\nvalueset &quot;Encounter Inpatient&quot;: 'http://cts.nlm.nih.gov/fhir/ValueSet/2.16.840.1.113883.3.666.5.307'\nvalueset &quot;Emergency Department Visit&quot;: 'http://cts.nlm.nih.gov/fhir/ValueSet/2.16.840.1.113883.3.117.1.7.1.292'\nvalueset &quot;Observation Services&quot;: 'http://cts.nlm.nih.gov/fhir/ValueSet/2.16.840.1.113762.1.4.1111.143'\n\ncode &quot;Birthdate&quot;: '21112-8' from &quot;LOINC&quot; display 'Birth date'\ncode &quot;Dead&quot;: '419099009' from &quot;SNOMEDCT&quot; display 'Dead'\ncode &quot;ER&quot;: 'ER' from &quot;RoleCode&quot; display 'Emergency room'\ncode &quot;ICU&quot;: 'ICU' from &quot;RoleCode&quot; display 'Intensive care unit'\ncode &quot;Billing&quot;: 'billing' from &quot;Diagnosis Role&quot; display 'Billing'\n\n// Condition Clinical Status Codes - Consider value sets for these\ncode &quot;active&quot;: 'active' from &quot;ConditionClinicalStatusCodes&quot;\ncode &quot;recurrence&quot;: 'recurrence' from &quot;ConditionClinicalStatusCodes&quot;\ncode &quot;relapse&quot;: 'relapse' from &quot;ConditionClinicalStatusCodes&quot;\ncode &quot;inactive&quot;: 'inactive' from &quot;ConditionClinicalStatusCodes&quot;\ncode &quot;remission&quot;: 'remission' from &quot;ConditionClinicalStatusCodes&quot;\ncode &quot;resolved&quot;: 'resolved' from &quot;ConditionClinicalStatusCodes&quot;\n\n// Condition Verification Status Codes - Consider value sets for these\ncode &quot;unconfirmed&quot;: 'unconfirmed' from ConditionVerificationStatusCodes\ncode &quot;provisional&quot;: 'provisional' from ConditionVerificationStatusCodes\ncode &quot;differential&quot;: 'differential' from ConditionVerificationStatusCodes\ncode &quot;confirmed&quot;: 'confirmed' from ConditionVerificationStatusCodes\ncode &quot;refuted&quot;: 'refuted' from ConditionVerificationStatusCodes\ncode &quot;entered-in-error&quot;: 'entered-in-error' from ConditionVerificationStatusCodes\n\ncode &quot;allergy-active&quot;: 'active' from &quot;AllergyIntoleranceClinicalStatusCodes&quot;\ncode &quot;allergy-inactive&quot;: 'inactive' from &quot;AllergyIntoleranceClinicalStatusCodes&quot;\ncode &quot;allergy-resolved&quot;: 'resolved' from &quot;AllergyIntoleranceClinicalStatusCodes&quot;\n\n// Allergy/Intolerance Verification Status Codes - Consider value sets for these\ncode &quot;allergy-unconfirmed&quot;: 'unconfirmed' from AllergyIntoleranceVerificationStatusCodes\ncode &quot;allergy-confirmed&quot;: 'confirmed' from AllergyIntoleranceVerificationStatusCodes\ncode &quot;allergy-refuted&quot;: 'refuted' from AllergyIntoleranceVerificationStatusCodes\n\n// MedicationRequest Category Codes\ncode &quot;Community&quot;: 'community' from &quot;MedicationRequestCategory&quot; display 'Community'\ncode &quot;Discharge&quot;: 'discharge' from &quot;MedicationRequestCategory&quot; display 'Discharge'\n\nparameter &quot;Measurement Period&quot; Interval&lt;DateTime&gt;\n  default Interval[@2019-01-01T00:00:00.0, @2020-01-01T00:00:00.0)\n\ncontext Patient\n\ndefine &quot;Inpatient Encounter&quot;:\n\t[Encounter: &quot;Encounter Inpatient&quot;] EncounterInpatient\n\t\twhere EncounterInpatient.status = 'finished'\n\t\t    and &quot;LengthInDays&quot;(EncounterInpatient.period) &lt;= 120\n\t\t\tand EncounterInpatient.period ends during &quot;Measurement Period&quot;\n\ndefine function &quot;ToDate&quot;(Value DateTime):\n\tDateTime(year from Value, month from Value, day from Value, 0, 0, 0, 0, timezoneoffset from Value)\n\ndefine function &quot;CalendarAgeInDaysAt&quot;(BirthDateTime DateTime, AsOf DateTime):\n\tdays between ToDate(BirthDateTime)and ToDate(AsOf)\n\ndefine function &quot;CalendarAgeInDays&quot;(BirthDateTime DateTime):\n\tCalendarAgeInDaysAt(BirthDateTime, Today())\n\ndefine function &quot;CalendarAgeInMonthsAt&quot;(BirthDateTime DateTime, AsOf DateTime):\n\tmonths between ToDate(BirthDateTime)and ToDate(AsOf)\n\ndefine function &quot;CalendarAgeInMonths&quot;(BirthDateTime DateTime):\n\tCalendarAgeInMonthsAt(BirthDateTime, Today())\n\ndefine function &quot;CalendarAgeInYearsAt&quot;(BirthDateTime DateTime, AsOf DateTime):\n\tyears between ToDate(BirthDateTime)and ToDate(AsOf)\n\ndefine function &quot;CalendarAgeInYears&quot;(BirthDateTime DateTime):\n\tCalendarAgeInYearsAt(BirthDateTime, Today())\n\ndefine function &quot;LengthInDays&quot;(Value Interval&lt;DateTime&gt;):\n\tdifference in days between start of Value and end of Value\n\ndefine function &quot;ED Visit&quot;(TheEncounter FHIR.Encounter):\n    singleton from (\n        [Encounter: &quot;Emergency Department Visit&quot;] EDVisit\n            where EDVisit.status = 'finished'\n                and EDVisit.period ends 1 hour or less on or before start of FHIRHelpers.ToInterval(TheEncounter.period)\n    )\n\ndefine function &quot;Hospitalization&quot;(TheEncounter FHIR.Encounter):\n\t( &quot;ED Visit&quot;(TheEncounter) ) X\n    return\n        if X is null then TheEncounter.period\n        else Interval[start of FHIRHelpers.ToInterval(X.period), end of FHIRHelpers.ToInterval(TheEncounter.period)]\n\ndefine function &quot;Hospitalization Locations&quot;(TheEncounter FHIR.Encounter):\n\t( &quot;ED Visit&quot;(TheEncounter) ) EDEncounter\n    return\n        if EDEncounter is null then TheEncounter.location\n        else flatten { EDEncounter.location, TheEncounter.location }\n\ndefine function &quot;Hospitalization Length of Stay&quot;(TheEncounter FHIR.Encounter):\n\tLengthInDays(&quot;Hospitalization&quot;(TheEncounter))\n\ndefine function &quot;Hospital Admission Time&quot;(TheEncounter FHIR.Encounter):\n\tstart of &quot;Hospitalization&quot;(TheEncounter)\n\ndefine function &quot;Hospital Discharge Time&quot;(TheEncounter FHIR.Encounter):\n\tend of FHIRHelpers.ToInterval(TheEncounter.period)\n\ndefine function &quot;Hospital Arrival Time&quot;(TheEncounter FHIR.Encounter):\n\tstart of FHIRHelpers.ToInterval(First(\n\t    ( &quot;Hospitalization Locations&quot;(TheEncounter) ) HospitalLocation\n\t\t\tsort by start of FHIRHelpers.ToInterval(period)\n\t).period)\n\ndefine function &quot;HospitalizationWithObservation&quot;(TheEncounter FHIR.Encounter):\n\tTheEncounter Visit\n\t\tlet ObsVisit: Last([Encounter: &quot;Observation Services&quot;] LastObs\n\t\t\t\twhere LastObs.period ends 1 hour or less on or before start of Visit.period\n\t\t\t\tsort by end of period\n\t\t\t),\n\t\t\tVisitStart: Coalesce(start of ObsVisit.period, start of Visit.period),\n\t\t\tEDVisit: Last([Encounter: &quot;Emergency Department Visit&quot;] LastED\n\t\t\t\twhere LastED.period ends 1 hour or less on or before VisitStart\n\t\t\t\tsort by end of period\n\t\t\t)\n\t\treturn Interval[Coalesce(start of EDVisit.period, VisitStart), end of Visit.period]\n\ndefine function &quot;HospitalizationWithObservationLengthofStay&quot;(Encounter FHIR.Encounter):\n\t&quot;LengthInDays&quot;(&quot;HospitalizationWithObservation&quot;(Encounter))\n\n// TODO - fix these (must fetch Location resources and compare id to reference)\n/*define function &quot;Hospital Departure Time&quot;(TheEncounter FHIR.Encounter):\n\tend of FHIRHelpers.ToInterval(Last(\n\t    ( &quot;Hospitalization Locations&quot;(TheEncounter) ) HospitalLocation\n\t\t\tsort by start of FHIRHelpers.ToInterval(period)\n\t).period)\n\ndefine function &quot;Emergency Department Arrival Time&quot;(TheEncounter FHIR.Encounter):\n\tstart of FHIRHelpers.ToInterval((\n\t    singleton from (\n\t        ( &quot;Hospitalization Locations&quot;(TheEncounter) ) HospitalLocation\n\t\t\t\twhere HospitalLocation.type ~ &quot;ER&quot;\n\t\t)\n\t).period)\n\ndefine function &quot;First Inpatient Intensive Care Unit&quot;(TheEncounter FHIR.Encounter):\n\tFirst(\n\t    ( TheEncounter.location ) HospitalLocation\n\t\t\twhere HospitalLocation.type ~ &quot;ICU&quot;\n\t\t\t\tand HospitalLocation.period during TheEncounter.period\n\t\t\tsort by start of FHIRHelpers.ToInterval(period)\n\t)*/\n\n/*\n*\n*    CQFMeasures Common Logic\n*\n*/\n\ndefine function &quot;Normalize Interval&quot;(choice Choice&lt;FHIR.dateTime, FHIR.Period, FHIR.Timing, FHIR.instant, FHIR.string, FHIR.Age, FHIR.Range&gt;):\n  case\n\t  when choice is FHIR.dateTime then\n    \tInterval[FHIRHelpers.ToDateTime(choice as FHIR.dateTime), FHIRHelpers.ToDateTime(choice as FHIR.dateTime)]\n\t\twhen choice is FHIR.Period then\n  \t\tFHIRHelpers.ToInterval(choice as FHIR.Period)\n\t\twhen choice is FHIR.instant then\n\t\t\tInterval[FHIRHelpers.ToDateTime(choice as FHIR.instant), FHIRHelpers.ToDateTime(choice as FHIR.instant)]\n\t\twhen choice is FHIR.Age then\n\t\t  Interval[FHIRHelpers.ToDate(Patient.birthDate) + FHIRHelpers.ToQuantity(choice as FHIR.Age),\n\t\t\t  FHIRHelpers.ToDate(Patient.birthDate) + FHIRHelpers.ToQuantity(choice as FHIR.Age) + 1 year)\n\t\twhen choice is FHIR.Range then\n\t\t  Interval[FHIRHelpers.ToDate(Patient.birthDate) + FHIRHelpers.ToQuantity((choice as FHIR.Range).low),\n\t\t\t  FHIRHelpers.ToDate(Patient.birthDate) + FHIRHelpers.ToQuantity((choice as FHIR.Range).high) + 1 year)\n\t\twhen choice is FHIR.Timing then\n\t\t  Message(null as Interval&lt;DateTime&gt;, true, '1', 'Error', 'Cannot compute a single interval from a Timing type')\n    when choice is FHIR.string then\n      Message(null as Interval&lt;DateTime&gt;, true, '1', 'Error', 'Cannot compute an interval from a String value')\n\t\telse\n\t\t\tnull as Interval&lt;DateTime&gt;\n\tend\n\ndefine function &quot;Normalize Abatement&quot;(condition Condition):\n\tif condition.abatement is FHIR.dateTime then\n\t  Interval[FHIRHelpers.ToDateTime(condition.abatement as FHIR.dateTime), FHIRHelpers.ToDateTime(condition.abatement as FHIR.dateTime)]\n\telse if condition.abatement is FHIR.Period then\n\t  FHIRHelpers.ToInterval(condition.abatement as FHIR.Period)\n\telse if condition.abatement is FHIR.string then\n    Message(null as Interval&lt;DateTime&gt;, true, '1', 'Error', 'Cannot compute an interval from a String value')\n\telse if condition.abatement is FHIR.Age then\n\t\tInterval[FHIRHelpers.ToDate(Patient.birthDate) + FHIRHelpers.ToQuantity(condition.abatement as FHIR.Age),\n\t\t\tFHIRHelpers.ToDate(Patient.birthDate) + FHIRHelpers.ToQuantity(condition.abatement as FHIR.Age) + 1 year)\n\telse if condition.abatement is FHIR.Range then\n\t  Interval[FHIRHelpers.ToDate(Patient.birthDate) + FHIRHelpers.ToQuantity((condition.abatement as FHIR.Range).low),\n\t\t  FHIRHelpers.ToDate(Patient.birthDate) + FHIRHelpers.ToQuantity((condition.abatement as FHIR.Range).high) + 1 year)\n\telse if condition.abatement is FHIR.boolean then\n\t  Interval[end of &quot;Normalize Interval&quot;(condition.onset), condition.recordedDate)\n\telse null\n\ndefine function &quot;Prevalence Period&quot;(condition Condition):\n  Interval[start of &quot;Normalize Interval&quot;(condition.onset), end of &quot;Normalize Abatement&quot;(condition))\n\ndefine function &quot;GetId&quot;(uri String):\n\tLast(Split(uri, '/'))\n\n\ndefine function &quot;EncounterDiagnosis&quot;(Encounter Encounter):\n  Encounter.diagnosis D\n    return singleton from ([Condition] C where C.id = &quot;GetId&quot;(D.condition.reference))\n\n// Returns the condition that is specified as the principal diagnosis for the encounter\n// TODO: BTR 2019-07-30: Shouldn't need the FHIRHelpers reference here, investigate\ndefine function &quot;PrincipalDiagnosis&quot;(Encounter Encounter):\n\t(singleton from (Encounter.diagnosis D where FHIRHelpers.ToInteger(D.rank) = 1)) PD\n\t\treturn singleton from ([Condition] C where C.id = &quot;GetId&quot;(PD.condition.reference))\n\n// Returns the location for the given location reference\ndefine function GetLocation(reference Reference):\n  singleton from (\n    [Location] L where L.id = GetId(reference.reference)\n  )\n\n/*\nNOTE: Extensions are not the preferred approach, but are used as a way to access\ncontent that is defined by extensions but not yet surfaced in the\nCQL model info.\n*/\ndefine function &quot;GetExtensions&quot;(domainResource DomainResource, url String):\n  domainResource.extension E\n\t  where E.url = ('http://hl7.org/fhir/us/qicore/StructureDefinition/' + url)\n\t\treturn E\n\ndefine function &quot;GetExtension&quot;(domainResource DomainResource, url String):\n  singleton from &quot;GetExtensions&quot;(domainResource, url)\n\n/*\nNOTE: Extensions are not the preferred approach, but are used as a way to access\ncontent that is defined by extensions but not yet surfaced in the\nCQL model info.\n*/\ndefine function &quot;GetExtensions&quot;(element Element, url String):\n  element.extension E\n\t  where E.url = (url)\n\t\treturn E\n\ndefine function &quot;GetExtension&quot;(element Element, url String):\n  singleton from &quot;GetExtensions&quot;(element, url)\n\n/*\nNOTE: Extensions are not the preferred approach, but are used as a way to access\ncontent that is defined by extensions but not yet surfaced in the\nCQL model info.\n*/\ndefine function &quot;GetBaseExtensions&quot;(domainResource DomainResource, url String):\n  domainResource.extension E\n\t  where E.url = ('http://hl7.org/fhir/StructureDefinition/' + url)\n\t\treturn E\n\ndefine function &quot;GetBaseExtension&quot;(domainResource DomainResource, url String):\n  singleton from &quot;GetBaseExtensions&quot;(domainResource, url)\n\n/*\nNOTE: Provenance is not the preferred approach, this is provided only as an illustration\nfor what using Provenance could look like, and is not a tested pattern\n*/\ndefine function &quot;GetProvenance&quot;(resource Resource):\n  singleton from ([Provenance: target in resource.id])\n\ndefine function &quot;GetMedicationCode&quot;(request MedicationRequest):\n  if request.medication is CodeableConcept then\n\t  request.medication as CodeableConcept\n\telse\n\t  (singleton from ([Medication] M where M.id = GetId((request.medication as Reference).reference))).code\n</code></pre>\n                    \n                    \n                </td>\n            </tr>\n        \n    </table>\n</div>"
        },
        "contained": [
          {
            "resourceType": "Device",
            "id": "cqf-tooling",
            "meta": {
              "profile": [
                "http://hl7.org/fhir/us/cqfmeasures/StructureDefinition/device-softwaresystem-cqfm"
              ]
            },
            "type": {
              "coding": [
                {
                  "system": "http://hl7.org/fhir/us/cqfmeasures/CodeSystem/software-system-type",
                  "code": "tooling"
                }
              ]
            },
            "version": [
              {
                "value": "1.1.0-SNAPSHOT"
              }
            ]
          }
        ],
        "extension": [
          {
            "url": "http://hl7.org/fhir/us/cqfmeasures/StructureDefinition/cqfm-softwaresystem",
            "valueReference": {
              "reference": "#cqf-tooling"
            }
          }
        ],
        "version": "5.0.000",
        "name": "MATGlobalCommonFunctions",
        "status": "active",
        "experimental": true,
        "type": {
          "coding": [
            {
              "system": "http://terminology.hl7.org/CodeSystem/library-type",
              "code": "logic-library"
            }
          ]
        },
        "relatedArtifact": [
          {
            "type": "depends-on",
            "resource": "http://fhir.org/guides/dbcg/connectathon/Library/library-FHIRHelpers|4.0.1"
          }
        ],
        "dataRequirement": [
          {
            "type": "Encounter",
            "codeFilter": [
              {
                "path": "type",
                "valueSet": "http://cts.nlm.nih.gov/fhir/ValueSet/2.16.840.1.113883.3.666.5.307"
              }
            ]
          },
          {
            "type": "Encounter",
            "codeFilter": [
              {
                "path": "type",
                "valueSet": "http://cts.nlm.nih.gov/fhir/ValueSet/2.16.840.1.113883.3.117.1.7.1.292"
              }
            ]
          },
          {
            "type": "Encounter",
            "codeFilter": [
              {
                "path": "type",
                "valueSet": "http://cts.nlm.nih.gov/fhir/ValueSet/2.16.840.1.113762.1.4.1111.143"
              }
            ]
          },
          {
            "type": "Encounter",
            "codeFilter": [
              {
                "path": "type",
                "valueSet": "http://cts.nlm.nih.gov/fhir/ValueSet/2.16.840.1.113883.3.117.1.7.1.292"
              }
            ]
          },
          {
            "type": "Condition"
          },
          {
            "type": "Condition"
          },
          {
            "type": "Location"
          },
          {
            "type": "Provenance",
            "codeFilter": [
              {
                "path": "target"
              }
            ]
          },
          {
            "type": "Medication"
          }
        ],
        "content": [
          {
            "contentType": "application/elm+xml",
            "data": ""
          },
          {
            "contentType": "text/cql",
            "data": ""
          }
        ]
      },
      "request": {
        "method": "PUT",
        "url": "Library/library-MATGlobalCommonFunctions-5.0.000"
      }
    },
    {
      "resource": {
        "resourceType": "ValueSet",
        "id": "2.16.840.1.113883.3.666.5.307",
        "url": "http://cts.nlm.nih.gov/fhir/ValueSet/2.16.840.1.113883.3.666.5.307",
        "identifier": [
          {
            "system": "urn:ietf:rfc:3986",
            "value": "2.16.840.1.113883.3.666.5.307"
          }
        ],
        "version": "20170504",
        "name": "EncounterInpatient",
        "title": "Encounter Inpatient",
        "status": "active",
        "publisher": "NLM",
        "compose": {
          "include": [
            {
              "system": "http://snomed.info/sct",
              "version": "2018-03",
              "concept": [
                {
                  "code": "183452005",
                  "display": "Emergency hospital admission (procedure)"
                },
                {
                  "code": "32485007",
                  "display": "Hospital admission (procedure)"
                },
                {
                  "code": "8715000",
                  "display": "Hospital admission, elective (procedure)"
                }
              ]
            }
          ]
        }
      },
      "request": {
        "method": "PUT",
        "url": "ValueSet/2.16.840.1.113883.3.666.5.307"
      }
    },
    {
      "resource": {
        "resourceType": "Encounter",
        "id": "ip-EXM529-Enc1",
        "meta": {
          "profile": [
            "http://hl7.org/fhir/us/core/StructureDefinition/us-core-encounter"
          ]
        },
        "status": "finished",
        "class": {
          "system": "http://terminology.hl7.org/CodeSystem/v3-ActCode",
          "code": "IMP",
          "display": "inpatient encounter"
        },
        "type": [
          {
            "coding": [
              {
                "system": "http://snomed.info/sct",
                "code": "32485007",
                "display": "Hospital admission (procedure)"
              }
            ]
          }
        ],
        "subject": {
          "reference": "Patient/ip-EXM529"
        },
        "period": {
          "start": "2019-01-16T00:00:00",
          "end": "2019-01-20T00:00:00"
        }
      },
      "request": {
        "method": "PUT",
        "url": "Encounter/ip-EXM529-Enc1"
      }
    },
    {
      "resource": {
        "resourceType": "ValueSet",
        "id": "2.16.840.1.113883.3.117.1.7.1.292",
        "url": "http://cts.nlm.nih.gov/fhir/ValueSet/2.16.840.1.113883.3.117.1.7.1.292",
        "title": "Emergency Department Visit",
        "status": "active",
        "publisher": "The Joint Commission",
        "compose": {
          "include": [
            {
              "system": "http://snomed.info/sct",
              "version": "2019-03",
              "concept": [
                {
                  "code": "4525004",
                  "display": "Emergency department patient visit (procedure)"
                }
              ]
            }
          ]
        }
      },
      "request": {
        "method": "PUT",
        "url": "ValueSet/2.16.840.1.113883.3.117.1.7.1.292"
      }
    },
    {
      "resource": {
        "resourceType": "Coverage",
        "id": "ip-EXM529-Coverage",
        "status": "active",
        "type": {
          "coding": [
            {
              "system": "http://www.nlm.nih.gov/research/umls/sop",
              "code": "1",
              "display": "MEDICARE"
            }
          ]
        },
        "policyHolder": {
          "reference": "Patient/ip-EXM529"
        },
        "beneficiary": {
          "reference": "Patient/ip-EXM529"
        },
        "period": {
          "start": "2018-05-30T00:00:00-00:00",
          "end": "2020-05-31T00:00:00-00:00"
        },
        "payor": [
          {
            "reference": "Patient/ip-EXM529"
          }
        ]
      },
      "request": {
        "method": "PUT",
        "url": "Coverage/ip-EXM529-Coverage"
      }
    },
    {
      "resource": {
        "resourceType": "Encounter",
        "id": "ip-EXM529-Enc2",
        "meta": {
          "profile": [
            "http://hl7.org/fhir/us/core/StructureDefinition/us-core-encounter"
          ]
        },
        "status": "finished",
        "class": {
          "system": "http://terminology.hl7.org/CodeSystem/v3-ActCode",
          "code": "IMP",
          "display": "inpatient encounter"
        },
        "type": [
          {
            "coding": [
              {
                "system": "http://snomed.info/sct",
                "code": "32485007",
                "display": "Hospital admission (procedure)"
              }
            ]
          }
        ],
        "subject": {
          "reference": "Patient/ip-EXM529"
        },
        "period": {
          "start": "2019-02-16T00:00:00",
          "end": "2019-02-20T00:00:00"
        }
      },
      "request": {
        "method": "PUT",
        "url": "Encounter/ip-EXM529-Enc2"
      }
    },
    {
      "resource": {
        "resourceType": "Library",
        "id": "library-FHIRHelpers-4.0.1",
        "text": {
          "status": "generated",
          "div": "<div xmlns=\"http://www.w3.org/1999/xhtml\"><table class=\"grid dict\"><tr><th scope=\"row\"><b>Id: </b></th><td style=\"padding-left: 25px; padding-right: 25px;\">library-FHIRHelpers-4.0.1</td></tr><tr><th scope=\"row\"><b>Type: </b></th><td style=\"padding-right: 25px;\"> logic-library </td></tr><tr><th scope=\"row\"><b>Version: </b></th><td style=\"padding-left: 25px; padding-right: 25px;\">4.0.1</td></tr><tr><th scope=\"row\"><b>Status: </b></th><td style=\"padding-left: 25px; padding-right: 25px;\">active</td></tr><tr style=\"vertical-align: top;\"><th scope=\"row\"><b>Content: </b></th><td style=\"padding-left: 25px; padding-right: 25px;\"><b>type: </b><span>text/cql</span></td></tr><tr><td colspan=\"2\" style=\"padding-left: 25px; padding-right: 25px;\"><pre><code class=\"language-cql\">library FHIRHelpers version '4.0.1'\n\nusing FHIR version '4.0.1'\n\ndefine function ToInterval(period FHIR.Period):\n    if period is null then\n        null\n    else\n        Interval[period.&quot;start&quot;.value, period.&quot;end&quot;.value]\n\ndefine function ToQuantity(quantity FHIR.Quantity):\n    if quantity is null then\n        null\n    else\n        System.Quantity { value: quantity.value.value, unit: quantity.unit.value }\n\ndefine function ToInterval(range FHIR.Range):\n    if range is null then\n        null\n    else\n        Interval[ToQuantity(range.low), ToQuantity(range.high)]\n\ndefine function ToCode(coding FHIR.Coding):\n    if coding is null then\n        null\n    else\n        System.Code {\n          code: coding.code.value,\n          system: coding.system.value,\n          version: coding.version.value,\n          display: coding.display.value\n        }\n\ndefine function ToConcept(concept FHIR.CodeableConcept):\n    if concept is null then\n        null\n    else\n        System.Concept {\n            codes: concept.coding C return ToCode(C),\n            display: concept.text.value\n        }\n\n\ndefine function ToString(value AccountStatus): value.value\ndefine function ToString(value ActionCardinalityBehavior): value.value\ndefine function ToString(value ActionConditionKind): value.value\ndefine function ToString(value ActionGroupingBehavior): value.value\ndefine function ToString(value ActionParticipantType): value.value\ndefine function ToString(value ActionPrecheckBehavior): value.value\ndefine function ToString(value ActionRelationshipType): value.value\ndefine function ToString(value ActionRequiredBehavior): value.value\ndefine function ToString(value ActionSelectionBehavior): value.value\ndefine function ToString(value ActivityDefinitionKind): value.value\ndefine function ToString(value ActivityParticipantType): value.value\ndefine function ToString(value AddressType): value.value\ndefine function ToString(value AddressUse): value.value\ndefine function ToString(value AdministrativeGender): value.value\ndefine function ToString(value AdverseEventActuality): value.value\ndefine function ToString(value AggregationMode): value.value\ndefine function ToString(value AllergyIntoleranceCategory): value.value\ndefine function ToString(value AllergyIntoleranceCriticality): value.value\ndefine function ToString(value AllergyIntoleranceSeverity): value.value\ndefine function ToString(value AllergyIntoleranceType): value.value\ndefine function ToString(value AppointmentStatus): value.value\ndefine function ToString(value AssertionDirectionType): value.value\ndefine function ToString(value AssertionOperatorType): value.value\ndefine function ToString(value AssertionResponseTypes): value.value\ndefine function ToString(value AuditEventAction): value.value\ndefine function ToString(value AuditEventAgentNetworkType): value.value\ndefine function ToString(value AuditEventOutcome): value.value\ndefine function ToString(value BindingStrength): value.value\ndefine function ToString(value BiologicallyDerivedProductCategory): value.value\ndefine function ToString(value BiologicallyDerivedProductStatus): value.value\ndefine function ToString(value BiologicallyDerivedProductStorageScale): value.value\ndefine function ToString(value BundleType): value.value\ndefine function ToString(value CapabilityStatementKind): value.value\ndefine function ToString(value CarePlanActivityKind): value.value\ndefine function ToString(value CarePlanActivityStatus): value.value\ndefine function ToString(value CarePlanIntent): value.value\ndefine function ToString(value CarePlanStatus): value.value\ndefine function ToString(value CareTeamStatus): value.value\ndefine function ToString(value CatalogEntryRelationType): value.value\ndefine function ToString(value ChargeItemDefinitionPriceComponentType): value.value\ndefine function ToString(value ChargeItemStatus): value.value\ndefine function ToString(value ClaimResponseStatus): value.value\ndefine function ToString(value ClaimStatus): value.value\ndefine function ToString(value ClinicalImpressionStatus): value.value\ndefine function ToString(value CodeSearchSupport): value.value\ndefine function ToString(value CodeSystemContentMode): value.value\ndefine function ToString(value CodeSystemHierarchyMeaning): value.value\ndefine function ToString(value CommunicationPriority): value.value\ndefine function ToString(value CommunicationRequestStatus): value.value\ndefine function ToString(value CommunicationStatus): value.value\ndefine function ToString(value CompartmentCode): value.value\ndefine function ToString(value CompartmentType): value.value\ndefine function ToString(value CompositionAttestationMode): value.value\ndefine function ToString(value CompositionStatus): value.value\ndefine function ToString(value ConceptMapEquivalence): value.value\ndefine function ToString(value ConceptMapGroupUnmappedMode): value.value\ndefine function ToString(value ConditionalDeleteStatus): value.value\ndefine function ToString(value ConditionalReadStatus): value.value\ndefine function ToString(value ConsentDataMeaning): value.value\ndefine function ToString(value ConsentProvisionType): value.value\ndefine function ToString(value ConsentState): value.value\ndefine function ToString(value ConstraintSeverity): value.value\ndefine function ToString(value ContactPointSystem): value.value\ndefine function ToString(value ContactPointUse): value.value\ndefine function ToString(value ContractPublicationStatus): value.value\ndefine function ToString(value ContractStatus): value.value\ndefine function ToString(value ContributorType): value.value\ndefine function ToString(value CoverageStatus): value.value\ndefine function ToString(value CurrencyCode): value.value\ndefine function ToString(value DayOfWeek): value.value\ndefine function ToString(value DaysOfWeek): value.value\ndefine function ToString(value DetectedIssueSeverity): value.value\ndefine function ToString(value DetectedIssueStatus): value.value\ndefine function ToString(value DeviceMetricCalibrationState): value.value\ndefine function ToString(value DeviceMetricCalibrationType): value.value\ndefine function ToString(value DeviceMetricCategory): value.value\ndefine function ToString(value DeviceMetricColor): value.value\ndefine function ToString(value DeviceMetricOperationalStatus): value.value\ndefine function ToString(value DeviceNameType): value.value\ndefine function ToString(value DeviceRequestStatus): value.value\ndefine function ToString(value DeviceUseStatementStatus): value.value\ndefine function ToString(value DiagnosticReportStatus): value.value\ndefine function ToString(value DiscriminatorType): value.value\ndefine function ToString(value DocumentConfidentiality): value.value\ndefine function ToString(value DocumentMode): value.value\ndefine function ToString(value DocumentReferenceStatus): value.value\ndefine function ToString(value DocumentRelationshipType): value.value\ndefine function ToString(value EligibilityRequestPurpose): value.value\ndefine function ToString(value EligibilityRequestStatus): value.value\ndefine function ToString(value EligibilityResponsePurpose): value.value\ndefine function ToString(value EligibilityResponseStatus): value.value\ndefine function ToString(value EnableWhenBehavior): value.value\ndefine function ToString(value EncounterLocationStatus): value.value\ndefine function ToString(value EncounterStatus): value.value\ndefine function ToString(value EndpointStatus): value.value\ndefine function ToString(value EnrollmentRequestStatus): value.value\ndefine function ToString(value EnrollmentResponseStatus): value.value\ndefine function ToString(value EpisodeOfCareStatus): value.value\ndefine function ToString(value EventCapabilityMode): value.value\ndefine function ToString(value EventTiming): value.value\ndefine function ToString(value EvidenceVariableType): value.value\ndefine function ToString(value ExampleScenarioActorType): value.value\ndefine function ToString(value ExplanationOfBenefitStatus): value.value\ndefine function ToString(value ExposureState): value.value\ndefine function ToString(value ExtensionContextType): value.value\ndefine function ToString(value FHIRAllTypes): value.value\ndefine function ToString(value FHIRDefinedType): value.value\ndefine function ToString(value FHIRDeviceStatus): value.value\ndefine function ToString(value FHIRResourceType): value.value\ndefine function ToString(value FHIRSubstanceStatus): value.value\ndefine function ToString(value FHIRVersion): value.value\ndefine function ToString(value FamilyHistoryStatus): value.value\ndefine function ToString(value FilterOperator): value.value\ndefine function ToString(value FlagStatus): value.value\ndefine function ToString(value GoalLifecycleStatus): value.value\ndefine function ToString(value GraphCompartmentRule): value.value\ndefine function ToString(value GraphCompartmentUse): value.value\ndefine function ToString(value GroupMeasure): value.value\ndefine function ToString(value GroupType): value.value\ndefine function ToString(value GuidanceResponseStatus): value.value\ndefine function ToString(value GuidePageGeneration): value.value\ndefine function ToString(value GuideParameterCode): value.value\ndefine function ToString(value HTTPVerb): value.value\ndefine function ToString(value IdentifierUse): value.value\ndefine function ToString(value IdentityAssuranceLevel): value.value\ndefine function ToString(value ImagingStudyStatus): value.value\ndefine function ToString(value ImmunizationEvaluationStatus): value.value\ndefine function ToString(value ImmunizationStatus): value.value\ndefine function ToString(value InvoicePriceComponentType): value.value\ndefine function ToString(value InvoiceStatus): value.value\ndefine function ToString(value IssueSeverity): value.value\ndefine function ToString(value IssueType): value.value\ndefine function ToString(value LinkType): value.value\ndefine function ToString(value LinkageType): value.value\ndefine function ToString(value ListMode): value.value\ndefine function ToString(value ListStatus): value.value\ndefine function ToString(value LocationMode): value.value\ndefine function ToString(value LocationStatus): value.value\ndefine function ToString(value MeasureReportStatus): value.value\ndefine function ToString(value MeasureReportType): value.value\ndefine function ToString(value MediaStatus): value.value\ndefine function ToString(value MedicationAdministrationStatus): value.value\ndefine function ToString(value MedicationDispenseStatus): value.value\ndefine function ToString(value MedicationKnowledgeStatus): value.value\ndefine function ToString(value MedicationRequestIntent): value.value\ndefine function ToString(value MedicationRequestPriority): value.value\ndefine function ToString(value MedicationRequestStatus): value.value\ndefine function ToString(value MedicationStatementStatus): value.value\ndefine function ToString(value MedicationStatus): value.value\ndefine function ToString(value MessageSignificanceCategory): value.value\ndefine function ToString(value Messageheader_Response_Request): value.value\ndefine function ToString(value MimeType): value.value\ndefine function ToString(value NameUse): value.value\ndefine function ToString(value NamingSystemIdentifierType): value.value\ndefine function ToString(value NamingSystemType): value.value\ndefine function ToString(value NarrativeStatus): value.value\ndefine function ToString(value NoteType): value.value\ndefine function ToString(value NutritiionOrderIntent): value.value\ndefine function ToString(value NutritionOrderStatus): value.value\ndefine function ToString(value ObservationDataType): value.value\ndefine function ToString(value ObservationRangeCategory): value.value\ndefine function ToString(value ObservationStatus): value.value\ndefine function ToString(value OperationKind): value.value\ndefine function ToString(value OperationParameterUse): value.value\ndefine function ToString(value OrientationType): value.value\ndefine function ToString(value ParameterUse): value.value\ndefine function ToString(value ParticipantRequired): value.value\ndefine function ToString(value ParticipantStatus): value.value\ndefine function ToString(value ParticipationStatus): value.value\ndefine function ToString(value PaymentNoticeStatus): value.value\ndefine function ToString(value PaymentReconciliationStatus): value.value\ndefine function ToString(value ProcedureStatus): value.value\ndefine function ToString(value PropertyRepresentation): value.value\ndefine function ToString(value PropertyType): value.value\ndefine function ToString(value ProvenanceEntityRole): value.value\ndefine function ToString(value PublicationStatus): value.value\ndefine function ToString(value QualityType): value.value\ndefine function ToString(value QuantityComparator): value.value\ndefine function ToString(value QuestionnaireItemOperator): value.value\ndefine function ToString(value QuestionnaireItemType): value.value\ndefine function ToString(value QuestionnaireResponseStatus): value.value\ndefine function ToString(value ReferenceHandlingPolicy): value.value\ndefine function ToString(value ReferenceVersionRules): value.value\ndefine function ToString(value ReferredDocumentStatus): value.value\ndefine function ToString(value RelatedArtifactType): value.value\ndefine function ToString(value RemittanceOutcome): value.value\ndefine function ToString(value RepositoryType): value.value\ndefine function ToString(value RequestIntent): value.value\ndefine function ToString(value RequestPriority): value.value\ndefine function ToString(value RequestStatus): value.value\ndefine function ToString(value ResearchElementType): value.value\ndefine function ToString(value ResearchStudyStatus): value.value\ndefine function ToString(value ResearchSubjectStatus): value.value\ndefine function ToString(value ResourceType): value.value\ndefine function ToString(value ResourceVersionPolicy): value.value\ndefine function ToString(value ResponseType): value.value\ndefine function ToString(value RestfulCapabilityMode): value.value\ndefine function ToString(value RiskAssessmentStatus): value.value\ndefine function ToString(value SPDXLicense): value.value\ndefine function ToString(value SearchComparator): value.value\ndefine function ToString(value SearchEntryMode): value.value\ndefine function ToString(value SearchModifierCode): value.value\ndefine function ToString(value SearchParamType): value.value\ndefine function ToString(value SectionMode): value.value\ndefine function ToString(value SequenceType): value.value\ndefine function ToString(value ServiceRequestIntent): value.value\ndefine function ToString(value ServiceRequestPriority): value.value\ndefine function ToString(value ServiceRequestStatus): value.value\ndefine function ToString(value SlicingRules): value.value\ndefine function ToString(value SlotStatus): value.value\ndefine function ToString(value SortDirection): value.value\ndefine function ToString(value SpecimenContainedPreference): value.value\ndefine function ToString(value SpecimenStatus): value.value\ndefine function ToString(value Status): value.value\ndefine function ToString(value StrandType): value.value\ndefine function ToString(value StructureDefinitionKind): value.value\ndefine function ToString(value StructureMapContextType): value.value\ndefine function ToString(value StructureMapGroupTypeMode): value.value\ndefine function ToString(value StructureMapInputMode): value.value\ndefine function ToString(value StructureMapModelMode): value.value\ndefine function ToString(value StructureMapSourceListMode): value.value\ndefine function ToString(value StructureMapTargetListMode): value.value\ndefine function ToString(value StructureMapTransform): value.value\ndefine function ToString(value SubscriptionChannelType): value.value\ndefine function ToString(value SubscriptionStatus): value.value\ndefine function ToString(value SupplyDeliveryStatus): value.value\ndefine function ToString(value SupplyRequestStatus): value.value\ndefine function ToString(value SystemRestfulInteraction): value.value\ndefine function ToString(value TaskIntent): value.value\ndefine function ToString(value TaskPriority): value.value\ndefine function ToString(value TaskStatus): value.value\ndefine function ToString(value TestReportActionResult): value.value\ndefine function ToString(value TestReportParticipantType): value.value\ndefine function ToString(value TestReportResult): value.value\ndefine function ToString(value TestReportStatus): value.value\ndefine function ToString(value TestScriptRequestMethodCode): value.value\ndefine function ToString(value TriggerType): value.value\ndefine function ToString(value TypeDerivationRule): value.value\ndefine function ToString(value TypeRestfulInteraction): value.value\ndefine function ToString(value UDIEntryType): value.value\ndefine function ToString(value UnitsOfTime): value.value\ndefine function ToString(value Use): value.value\ndefine function ToString(value VariableType): value.value\ndefine function ToString(value VisionBase): value.value\ndefine function ToString(value VisionEyes): value.value\ndefine function ToString(value VisionStatus): value.value\ndefine function ToString(value XPathUsageType): value.value\ndefine function ToString(value base64Binary): value.value\ndefine function ToBoolean(value boolean): value.value\ndefine function ToDate(value date): value.value\ndefine function ToDateTime(value dateTime): value.value\ndefine function ToDecimal(value decimal): value.value\ndefine function ToDateTime(value instant): value.value\ndefine function ToInteger(value integer): value.value\ndefine function ToString(value string): value.value\ndefine function ToTime(value time): value.value\ndefine function ToString(value uri): value.value\ndefine function ToString(value xhtml): value.value\n</code></pre>\n                    \n                    \n                </td>\n            </tr>\n        \n    </table>\n</div>"
        },
        "contained": [
          {
            "resourceType": "Device",
            "id": "cqf-tooling",
            "meta": {
              "profile": [
                "http://hl7.org/fhir/us/cqfmeasures/StructureDefinition/device-softwaresystem-cqfm"
              ]
            },
            "type": {
              "coding": [
                {
                  "system": "http://hl7.org/fhir/us/cqfmeasures/CodeSystem/software-system-type",
                  "code": "tooling"
                }
              ]
            },
            "version": [
              {
                "value": "1.1.0-SNAPSHOT"
              }
            ]
          }
        ],
        "extension": [
          {
            "url": "http://hl7.org/fhir/us/cqfmeasures/StructureDefinition/cqfm-softwaresystem",
            "valueReference": {
              "reference": "#cqf-tooling"
            }
          }
        ],
        "version": "4.0.1",
        "name": "FHIRHelpers",
        "status": "active",
        "experimental": true,
        "type": {
          "coding": [
            {
              "system": "http://terminology.hl7.org/CodeSystem/library-type",
              "code": "logic-library"
            }
          ]
        },
        "content": [
          {
            "contentType": "application/elm+xml",
            "data": ""
          },
          {
            "contentType": "text/cql",
            "data": ""
          }
        ]
      },
      "request": {
        "method": "PUT",
        "url": "Library/library-FHIRHelpers-4.0.1"
      }
    },
    {
      "resource": {
        "resourceType": "Library",
        "id": "library-EXM529-1.0.000",
        "text": {
          "status": "generated",
          "div": "<div xmlns=\"http://www.w3.org/1999/xhtml\"><table class=\"grid dict\"><tr><th scope=\"row\"><b>Id: </b></th><td style=\"padding-left: 25px; padding-right: 25px;\">library-EXM529-1.0.000</td></tr><tr><th scope=\"row\"><b>Type: </b></th><td style=\"padding-right: 25px;\"> logic-library </td></tr><tr><th scope=\"row\"><b>Version: </b></th><td style=\"padding-left: 25px; padding-right: 25px;\">1.0.000</td></tr><tr><th scope=\"row\"><b>Status: </b></th><td style=\"padding-left: 25px; padding-right: 25px;\">active</td></tr><tr style=\"vertical-align: top;\"><th rowspan=\"3\" scope=\"row\"><b>Related: </b></th><td style=\"padding-left: 25px; padding-right: 25px;\"><p style=\"margin-bottom: 5px;\"><b>type: </b><span>depends-on</span></p><p style=\"margin-bottom: 5px;\"><b>Resource: </b><br/><span>http://fhir.org/guides/dbcg/connectathon/Library/library-FHIRHelpers|4.0.1</span></p></td></tr><tr style=\"vertical-align: top;\"><td style=\"padding-left: 25px; padding-right: 25px;\"><p style=\"margin-bottom: 5px;\"><b>type: </b><span>depends-on</span></p><p style=\"margin-bottom: 5px;\"><b>Resource: </b><br/><span>http://fhir.org/guides/dbcg/connectathon/Library/library-MATGlobalCommonFunctions|5.0.000</span></p></td></tr><tr style=\"vertical-align: top;\"><td style=\"padding-left: 25px; padding-right: 25px;\"><p style=\"margin-bottom: 5px;\"><b>type: </b><span>depends-on</span></p><p style=\"margin-bottom: 5px;\"><b>Resource: </b><br/><span>http://fhir.org/guides/dbcg/connectathon/Library/library-SupplementalDataElements|2.0.0</span></p></td></tr><tr style=\"vertical-align: top;\"><th rowspan=\"15\" scope=\"row\"><b>Data Requirements: </b></th><td style=\"padding-left: 25px; padding-right: 25px;\"><div><p style=\"margin-bottom: 5px;\"><b>type: </b><span>Encounter</span></p><p style=\"margin-bottom: 5px;\"><b>code filter:</b><br/><span style=\"padding-left: 25px;\"><b>path: </b><span>type</span></span><br/><span style=\"padding-left: 25px;\"><b>valueset: </b><span>http://cts.nlm.nih.gov/fhir/ValueSet/2.16.840.1.113883.3.666.5.307</span></span></p></div></td></tr><tr style=\"vertical-align: top;\"><td style=\"padding-left: 25px; padding-right: 25px;\"><div><p style=\"margin-bottom: 5px;\"><b>type: </b><span>Coverage</span></p><p style=\"margin-bottom: 5px;\"><b>code filter:</b><br/><span style=\"padding-left: 25px;\"><b>path: </b><span>type</span></span><br/><span style=\"padding-left: 25px;\"><b>valueset: </b><span>http://cts.nlm.nih.gov/fhir/ValueSet/2.16.840.1.113762.1.4.1104.10</span></span></p></div></td></tr><tr style=\"vertical-align: top;\"><td style=\"padding-left: 25px; padding-right: 25px;\"><div><p style=\"margin-bottom: 5px;\"><b>type: </b><span>Observation</span></p><p style=\"margin-bottom: 5px;\"><b>code filter:</b><br/><span style=\"padding-left: 25px;\"><b>path: </b><span>code</span></span></p></div></td></tr><tr style=\"vertical-align: top;\"><td style=\"padding-left: 25px; padding-right: 25px;\"><div><p style=\"margin-bottom: 5px;\"><b>type: </b><span>Observation</span></p><p style=\"margin-bottom: 5px;\"><b>code filter:</b><br/><span style=\"padding-left: 25px;\"><b>path: </b><span>code</span></span></p></div></td></tr><tr style=\"vertical-align: top;\"><td style=\"padding-left: 25px; padding-right: 25px;\"><div><p style=\"margin-bottom: 5px;\"><b>type: </b><span>Observation</span></p><p style=\"margin-bottom: 5px;\"><b>code filter:</b><br/><span style=\"padding-left: 25px;\"><b>path: </b><span>code</span></span></p></div></td></tr><tr style=\"vertical-align: top;\"><td style=\"padding-left: 25px; padding-right: 25px;\"><div><p style=\"margin-bottom: 5px;\"><b>type: </b><span>Observation</span></p><p style=\"margin-bottom: 5px;\"><b>code filter:</b><br/><span style=\"padding-left: 25px;\"><b>path: </b><span>code</span></span><br/><span style=\"padding-left: 25px;\"><b>valueset: </b><span>http://cts.nlm.nih.gov/fhir/ValueSet/2.16.840.1.113762.1.4.1045.152</span></span></p></div></td></tr><tr style=\"vertical-align: top;\"><td style=\"padding-left: 25px; padding-right: 25px;\"><div><p style=\"margin-bottom: 5px;\"><b>type: </b><span>Observation</span></p><p style=\"margin-bottom: 5px;\"><b>code filter:</b><br/><span style=\"padding-left: 25px;\"><b>path: </b><span>code</span></span></p></div></td></tr><tr style=\"vertical-align: top;\"><td style=\"padding-left: 25px; padding-right: 25px;\"><div><p style=\"margin-bottom: 5px;\"><b>type: </b><span>Observation</span></p><p style=\"margin-bottom: 5px;\"><b>code filter:</b><br/><span style=\"padding-left: 25px;\"><b>path: </b><span>code</span></span><br/><span style=\"padding-left: 25px;\"><b>valueset: </b><span>http://cts.nlm.nih.gov/fhir/ValueSet/2.16.840.1.113762.1.4.1045.159</span></span></p></div></td></tr><tr style=\"vertical-align: top;\"><td style=\"padding-left: 25px; padding-right: 25px;\"><div><p style=\"margin-bottom: 5px;\"><b>type: </b><span>Observation</span></p><p style=\"margin-bottom: 5px;\"><b>code filter:</b><br/><span style=\"padding-left: 25px;\"><b>path: </b><span>code</span></span><br/><span style=\"padding-left: 25px;\"><b>valueset: </b><span>http://cts.nlm.nih.gov/fhir/ValueSet/2.16.840.1.113762.1.4.1045.114</span></span></p></div></td></tr><tr style=\"vertical-align: top;\"><td style=\"padding-left: 25px; padding-right: 25px;\"><div><p style=\"margin-bottom: 5px;\"><b>type: </b><span>Observation</span></p><p style=\"margin-bottom: 5px;\"><b>code filter:</b><br/><span style=\"padding-left: 25px;\"><b>path: </b><span>code</span></span><br/><span style=\"padding-left: 25px;\"><b>valueset: </b><span>http://cts.nlm.nih.gov/fhir/ValueSet/2.16.840.1.113762.1.4.1045.129</span></span></p></div></td></tr><tr style=\"vertical-align: top;\"><td style=\"padding-left: 25px; padding-right: 25px;\"><div><p style=\"margin-bottom: 5px;\"><b>type: </b><span>Observation</span></p><p style=\"margin-bottom: 5px;\"><b>code filter:</b><br/><span style=\"padding-left: 25px;\"><b>path: </b><span>code</span></span><br/><span style=\"padding-left: 25px;\"><b>valueset: </b><span>http://cts.nlm.nih.gov/fhir/ValueSet/2.16.840.1.113762.1.4.1045.117</span></span></p></div></td></tr><tr style=\"vertical-align: top;\"><td style=\"padding-left: 25px; padding-right: 25px;\"><div><p style=\"margin-bottom: 5px;\"><b>type: </b><span>Observation</span></p><p style=\"margin-bottom: 5px;\"><b>code filter:</b><br/><span style=\"padding-left: 25px;\"><b>path: </b><span>code</span></span><br/><span style=\"padding-left: 25px;\"><b>valueset: </b><span>http://cts.nlm.nih.gov/fhir/ValueSet/2.16.840.1.113762.1.4.1045.119</span></span></p></div></td></tr><tr style=\"vertical-align: top;\"><td style=\"padding-left: 25px; padding-right: 25px;\"><div><p style=\"margin-bottom: 5px;\"><b>type: </b><span>Observation</span></p><p style=\"margin-bottom: 5px;\"><b>code filter:</b><br/><span style=\"padding-left: 25px;\"><b>path: </b><span>code</span></span><br/><span style=\"padding-left: 25px;\"><b>valueset: </b><span>http://cts.nlm.nih.gov/fhir/ValueSet/2.16.840.1.113762.1.4.1045.139</span></span></p></div></td></tr><tr style=\"vertical-align: top;\"><td style=\"padding-left: 25px; padding-right: 25px;\"><div><p style=\"margin-bottom: 5px;\"><b>type: </b><span>Observation</span></p><p style=\"margin-bottom: 5px;\"><b>code filter:</b><br/><span style=\"padding-left: 25px;\"><b>path: </b><span>code</span></span><br/><span style=\"padding-left: 25px;\"><b>valueset: </b><span>http://cts.nlm.nih.gov/fhir/ValueSet/2.16.840.1.113883.3.666.5.2363</span></span></p></div></td></tr><tr style=\"vertical-align: top;\"><td style=\"padding-left: 25px; padding-right: 25px;\"><div><p style=\"margin-bottom: 5px;\"><b>type: </b><span>Observation</span></p><p style=\"margin-bottom: 5px;\"><b>code filter:</b><br/><span style=\"padding-left: 25px;\"><b>path: </b><span>code</span></span><br/><span style=\"padding-left: 25px;\"><b>valueset: </b><span>http://cts.nlm.nih.gov/fhir/ValueSet/2.16.840.1.113762.1.4.1045.134</span></span></p></div></td></tr><tr style=\"vertical-align: top;\"><th scope=\"row\"><b>Content: </b></th><td style=\"padding-left: 25px; padding-right: 25px;\"><b>type: </b><span>text/cql</span></td></tr><tr><td colspan=\"2\" style=\"padding-left: 25px; padding-right: 25px;\"><pre><code class=\"language-cql\">library EXM529 version '1.0.000'\n\nusing FHIR version '4.0.1'\n\ninclude FHIRHelpers version '4.0.1' called FHIRHelpers\ninclude MATGlobalCommonFunctions version '5.0.000' called Global\ninclude SupplementalDataElements version '2.0.0' called SDE\n\ncodesystem &quot;LOINC&quot;: 'http://loinc.org'\n\nvalueset &quot;Bicarbonate Lab Test&quot;:  'http://cts.nlm.nih.gov/fhir/ValueSet/2.16.840.1.113762.1.4.1045.139'\nvalueset &quot;Body Temperature LOINC&quot;:  'http://cts.nlm.nih.gov/fhir/ValueSet/2.16.840.1.113762.1.4.1045.152'\nvalueset &quot;Body Weight&quot;:  'http://cts.nlm.nih.gov/fhir/ValueSet/2.16.840.1.113762.1.4.1045.159'\nvalueset &quot;Creatinine Lab Test&quot;:  'http://cts.nlm.nih.gov/fhir/ValueSet/2.16.840.1.113883.3.666.5.2363'\nvalueset &quot;Emergency Department Visit&quot;:  'http://cts.nlm.nih.gov/fhir/ValueSet/2.16.840.1.113883.3.117.1.7.1.292'\nvalueset &quot;Encounter Inpatient&quot;:  'http://cts.nlm.nih.gov/fhir/ValueSet/2.16.840.1.113883.3.666.5.307'\nvalueset &quot;Glucose Lab Test&quot;:  'http://cts.nlm.nih.gov/fhir/ValueSet/2.16.840.1.113762.1.4.1045.134'\nvalueset &quot;Hematocrit lab test&quot;:  'http://cts.nlm.nih.gov/fhir/ValueSet/2.16.840.1.113762.1.4.1045.114'\nvalueset &quot;Medicare payer&quot;:  'http://cts.nlm.nih.gov/fhir/ValueSet/2.16.840.1.113762.1.4.1104.10'\nvalueset &quot;Potassium Lab Test&quot;:  'http://cts.nlm.nih.gov/fhir/ValueSet/2.16.840.1.113762.1.4.1045.117'\nvalueset &quot;Sodium Lab Test V&quot;:  'http://cts.nlm.nih.gov/fhir/ValueSet/2.16.840.1.113762.1.4.1045.119'\nvalueset &quot;White Blood Cells Count Lab Test&quot;:  'http://cts.nlm.nih.gov/fhir/ValueSet/2.16.840.1.113762.1.4.1045.129'\n\ncode &quot;Heart rate&quot;: '8867-4' from &quot;LOINC&quot; display 'Heart rate'\ncode &quot;Oxygen saturation in Arterial blood by Pulse oximetry&quot;: '59408-5' from &quot;LOINC&quot; display 'Oxygen saturation in Arterial blood by Pulse oximetry'\ncode &quot;Respiratory rate&quot;: '9279-1' from &quot;LOINC&quot; display 'Respiratory rate'\ncode &quot;Systolic blood pressure&quot;: '8480-6' from &quot;LOINC&quot; display 'Systolic blood pressure'\n\nparameter &quot;Measurement Period&quot; Interval&lt;DateTime&gt;\n\t\tdefault Interval[@2019-01-01T00:00:00.0, @2020-01-01T00:00:00.0)\n\ncontext Patient\n\ndefine &quot;SDE Ethnicity&quot;:\n  SDE.&quot;SDE Ethnicity&quot;\n\ndefine &quot;SDE Payer&quot;:\n  SDE.&quot;SDE Payer&quot;\n\ndefine &quot;SDE Race&quot;:\n  SDE.&quot;SDE Race&quot;\n\ndefine &quot;SDE Sex&quot;:\n  SDE.&quot;SDE Sex&quot;\n\ndefine &quot;Initial Population&quot;:\n  exists &quot;Inpatient Encounters&quot; //added &quot;exists&quot;\n\ndefine &quot;Inpatient Encounters&quot;:\n  from\n    [Encounter: &quot;Encounter Inpatient&quot;] InpatientEncounter,\n    [Coverage: &quot;Medicare payer&quot;] Payer\n//    [Patient] Birthdate // no need to alias Patient here, can just use &quot;Patient&quot; in age calculation\n    where (Payer.period overlaps before InpatientEncounter.period //what is the intended timing? This phrase measns that the encounter could end after the coverage. Is that a problem? see https://cql.hl7.org/02-authorsguide.html#comparing-intervals\n    \t\t\t or start of Payer.period same as start of InpatientEncounter.period) //this second timing phrase is unneeded, &quot;overlaps before&quot; above means &quot;start of X &lt;= start of Y, and start of Y &lt;= end of X&quot;; see https://cql.hl7.org/02-authorsguide.html#comparing-intervals\n\t\t\tand end of Payer.period != start of InpatientEncounter.period //coverage cannot end exactly when encounter starts. Should this be at &quot;day&quot; granularity? And encounter + 1 day?\n//      and Global.HospitalizationWithObservationLengthofStay(InpatientEncounter) &lt; 365\n      and InpatientEncounter.period ends during &quot;Measurement Period&quot;\n//      and Global.CalendarAgeInYearsAt(FHIRHelpers.ToDate(Patient.birthDate), start of InpatientEncounter.period) &gt;= 65\n    return InpatientEncounter\n\ndefine &quot;Results&quot;:\nflatten{//flatten turns a list of lists into a single list\n  // First physical exams (vital signs)\n    &quot;FirstPhysicalExam&quot;(([Observation: &quot;Heart rate&quot;] O where O.effective is not null sort by effective.value), 'HR'), //Warnings for direct reference codes are not a concern. Logic will still work. Confirmed during FHIR Call 2/4/20\n    &quot;FirstPhysicalExam&quot;(([Observation: &quot;Systolic blood pressure&quot;] O where O.effective is not null sort by effective.value), 'SBP'),\n    &quot;FirstPhysicalExam&quot;(([Observation: &quot;Respiratory rate&quot;] O where O.effective is not null sort by effective.value), 'RR'),\n    &quot;FirstPhysicalExam&quot;(([Observation: &quot;Body Temperature LOINC&quot;] O where O.effective is not null sort by effective.value), 'Temp'),\n    &quot;FirstPhysicalExam&quot;(([Observation: &quot;Oxygen saturation in Arterial blood by Pulse oximetry&quot;] O where O.effective is not null sort by effective.value), 'O2Sat'),\n\t// Weight uses lab test timing\n\t\t&quot;FirstPhysicalExamWithUsingLabTiming&quot;(([Observation: &quot;Body Weight&quot;] O where O.effective is not null sort by effective.value), 'Weight'),\n  // First lab tests\n    &quot;FirstLabTest&quot;(([Observation: &quot;Hematocrit lab test&quot;] O where O.issued is not null sort by issued.value), 'Hemat'),\n    &quot;FirstLabTest&quot;(([Observation: &quot;White Blood Cells Count Lab Test&quot;] O where O.issued is not null sort by issued.value), 'WBC'),\n    &quot;FirstLabTest&quot;(([Observation: &quot;Potassium Lab Test&quot;] O where O.issued is not null sort by issued.value), 'Potass'),\n    &quot;FirstLabTest&quot;(([Observation: &quot;Sodium Lab Test V&quot;] O where O.issued is not null sort by issued.value), 'Sodium'),\n    &quot;FirstLabTest&quot;(([Observation: &quot;Bicarbonate Lab Test&quot;] O where O.issued is not null sort by issued.value), 'Bicarb'),\n    &quot;FirstLabTest&quot;(([Observation: &quot;Creatinine Lab Test&quot;] O where O.issued is not null sort by issued.value), 'Creat'),\n    &quot;FirstLabTest&quot;(([Observation: &quot;Glucose Lab Test&quot;] O where O.issued is not null sort by issued.value), 'Glucose')\n}\n\ndefine function &quot;FirstLabTest&quot;(LabList List&lt;FHIR.Observation&gt;, CCDE String)://returns List&lt;System.String&gt;\n  &quot;Inpatient Encounters&quot; Encounter\n  let firstlab: First(LabList Lab\n\t\t//Need to use Global.&quot;Normalize Interval&quot; to account for different time data types, but using &quot;in&quot; for now\n    where Lab.issued in Interval[start of Encounter.period - 1440 minutes, start of Encounter.period + 1440 minutes]//should use &quot;1 day&quot;? Would this cause issues during daylight time switches?\n\t\t\tand Lab.status in {'final', 'amended', 'preliminary'})\n    //sort by issued.value)//Sort doesn't work here as intended. Sorting need to be done outside of the Encounter comparison, so it has been moved above\n\t\t//Note that when using + with string values, if either argument is null, the result will be null. To treat null as the empty string (''), use the &amp; operator\n\treturn '\\r\\n' &amp; CCDE &amp; ',' &amp; (Encounter.id as String) &amp; ',' &amp; ToString(firstlab.value as Quantity) &amp; ',' &amp; ToString(firstlab.issued)//May need to account for value[x] as data types other than Quantity\n\t//Added &quot; &amp; '\\r\\n'&quot; to the return to create new lines\n\ndefine function &quot;FirstPhysicalExam&quot;(ExamList List&lt;FHIR.Observation&gt;, CCDE String):\n  &quot;Inpatient Encounters&quot; Encounter\n  \tlet firstexam: First(ExamList Exam\n\t\twhere Exam.effective in Interval[start of Encounter.period - 1440 minutes, start of Encounter.period + 120 minutes]//again, &quot;1 day&quot; and &quot;2 hours&quot;? Daylight savings switch?\n\t\t\tand Exam.status in {'final', 'amended', 'preliminary'})\n\treturn '\\r\\n' &amp; CCDE &amp; ',' &amp; (Encounter.id as String) &amp; ',' &amp; ToString(firstexam.value as Quantity) &amp; ',' &amp; ToString(firstexam.effective)\n\ndefine function &quot;FirstPhysicalExamWithUsingLabTiming&quot;(ExamList List&lt;FHIR.Observation&gt;, CCDE String):\n  &quot;Inpatient Encounters&quot; Encounter\n  let firstexamwithlabtiming: First(ExamList Exam\n    where Exam.effective in Interval[start of Encounter.period - 1440 minutes, start of Encounter.period + 1440 minutes]//same questions again.\n\t\t\tand Exam.status in {'final', 'amended', 'preliminary'})\n  return '\\r\\n' &amp; CCDE &amp; ',' &amp; (Encounter.id as String) &amp; ',' &amp; ToString(firstexamwithlabtiming.value as Quantity) &amp; ',' &amp; ToString(firstexamwithlabtiming.effective)\n</code></pre>\n                    \n                    \n                </td>\n            </tr>\n        \n    </table>\n</div>"
        },
        "contained": [
          {
            "resourceType": "Device",
            "id": "cqf-tooling",
            "meta": {
              "profile": [
                "http://hl7.org/fhir/us/cqfmeasures/StructureDefinition/device-softwaresystem-cqfm"
              ]
            },
            "type": {
              "coding": [
                {
                  "system": "http://hl7.org/fhir/us/cqfmeasures/CodeSystem/software-system-type",
                  "code": "tooling"
                }
              ]
            },
            "version": [
              {
                "value": "1.1.0-SNAPSHOT"
              }
            ]
          }
        ],
        "extension": [
          {
            "url": "http://hl7.org/fhir/us/cqfmeasures/StructureDefinition/cqfm-softwaresystem",
            "valueReference": {
              "reference": "#cqf-tooling"
            }
          }
        ],
        "version": "1.0.000",
        "name": "EXM529",
        "status": "active",
        "experimental": true,
        "type": {
          "coding": [
            {
              "system": "http://terminology.hl7.org/CodeSystem/library-type",
              "code": "logic-library"
            }
          ]
        },
        "relatedArtifact": [
          {
            "type": "depends-on",
            "resource": "http://fhir.org/guides/dbcg/connectathon/Library/library-FHIRHelpers|4.0.1"
          },
          {
            "type": "depends-on",
            "resource": "http://fhir.org/guides/dbcg/connectathon/Library/library-MATGlobalCommonFunctions|5.0.000"
          },
          {
            "type": "depends-on",
            "resource": "http://fhir.org/guides/dbcg/connectathon/Library/library-SupplementalDataElements|2.0.0"
          }
        ],
        "dataRequirement": [
          {
            "type": "Encounter",
            "codeFilter": [
              {
                "path": "type",
                "valueSet": "http://cts.nlm.nih.gov/fhir/ValueSet/2.16.840.1.113883.3.666.5.307"
              }
            ]
          },
          {
            "type": "Coverage",
            "codeFilter": [
              {
                "path": "type",
                "valueSet": "http://cts.nlm.nih.gov/fhir/ValueSet/2.16.840.1.113762.1.4.1104.10"
              }
            ]
          },
          {
            "type": "Observation",
            "codeFilter": [
              {
                "path": "code"
              }
            ]
          },
          {
            "type": "Observation",
            "codeFilter": [
              {
                "path": "code"
              }
            ]
          },
          {
            "type": "Observation",
            "codeFilter": [
              {
                "path": "code"
              }
            ]
          },
          {
            "type": "Observation",
            "codeFilter": [
              {
                "path": "code",
                "valueSet": "http://cts.nlm.nih.gov/fhir/ValueSet/2.16.840.1.113762.1.4.1045.152"
              }
            ]
          },
          {
            "type": "Observation",
            "codeFilter": [
              {
                "path": "code"
              }
            ]
          },
          {
            "type": "Observation",
            "codeFilter": [
              {
                "path": "code",
                "valueSet": "http://cts.nlm.nih.gov/fhir/ValueSet/2.16.840.1.113762.1.4.1045.159"
              }
            ]
          },
          {
            "type": "Observation",
            "codeFilter": [
              {
                "path": "code",
                "valueSet": "http://cts.nlm.nih.gov/fhir/ValueSet/2.16.840.1.113762.1.4.1045.114"
              }
            ]
          },
          {
            "type": "Observation",
            "codeFilter": [
              {
                "path": "code",
                "valueSet": "http://cts.nlm.nih.gov/fhir/ValueSet/2.16.840.1.113762.1.4.1045.129"
              }
            ]
          },
          {
            "type": "Observation",
            "codeFilter": [
              {
                "path": "code",
                "valueSet": "http://cts.nlm.nih.gov/fhir/ValueSet/2.16.840.1.113762.1.4.1045.117"
              }
            ]
          },
          {
            "type": "Observation",
            "codeFilter": [
              {
                "path": "code",
                "valueSet": "http://cts.nlm.nih.gov/fhir/ValueSet/2.16.840.1.113762.1.4.1045.119"
              }
            ]
          },
          {
            "type": "Observation",
            "codeFilter": [
              {
                "path": "code",
                "valueSet": "http://cts.nlm.nih.gov/fhir/ValueSet/2.16.840.1.113762.1.4.1045.139"
              }
            ]
          },
          {
            "type": "Observation",
            "codeFilter": [
              {
                "path": "code",
                "valueSet": "http://cts.nlm.nih.gov/fhir/ValueSet/2.16.840.1.113883.3.666.5.2363"
              }
            ]
          },
          {
            "type": "Observation",
            "codeFilter": [
              {
                "path": "code",
                "valueSet": "http://cts.nlm.nih.gov/fhir/ValueSet/2.16.840.1.113762.1.4.1045.134"
              }
            ]
          }
        ],
        "content": [
          {
            "contentType": "application/elm+xml",
            "data": ""
          },
          {
            "contentType": "text/cql",
            "data": ""
          }
        ]
      },
      "request": {
        "method": "PUT",
        "url": "Library/library-EXM529-1.0.000"
      }
    },
    {
      "resource": {
        "resourceType": "ValueSet",
        "id": "2.16.840.1.113762.1.4.1104.10",
        "meta": {
          "versionId": "12",
          "lastUpdated": "2020-03-07T01:00:21.000-05:00"
        },
        "text": {
          "status": "generated",
          "div": "<div xmlns=\"http://www.w3.org/1999/xhtml\"><h2>Medicare payer</h2><p>This value set includes codes from the following code systems:</p><ul><li>Include these codes as defined in <code>http://www.nlm.nih.gov/research/umls/sop</code><table class=\"none\"><tr><td><b>Code</b></td><td><b>Display</b></td></tr><tr><td>1</td><td>MEDICARE</td><td/></tr><tr><td>12</td><td>Medicare (Non-managed Care)</td><td/></tr><tr><td>121</td><td>Medicare FFS</td><td/></tr><tr><td>122</td><td>Medicare Drug Benefit</td><td/></tr><tr><td>123</td><td>Medicare Medical Savings Account (MSA)</td><td/></tr><tr><td>129</td><td>Medicare Non-managed Care Other</td><td/></tr><tr><td>14</td><td>Dual Eligibility Medicare/Medicaid Organization</td><td/></tr></table></li></ul></div>"
        },
        "url": "http://cts.nlm.nih.gov/fhir/ValueSet/2.16.840.1.113762.1.4.1104.10",
        "version": "20200307",
        "name": "Medicare payer",
        "status": "active",
        "date": "2020-03-07T01:00:21-05:00",
        "publisher": "Yale",
        "compose": {
          "include": [
            {
              "system": "http://www.nlm.nih.gov/research/umls/sop",
              "concept": [
                {
                  "code": "1",
                  "display": "MEDICARE"
                },
                {
                  "code": "12",
                  "display": "Medicare (Non-managed Care)"
                },
                {
                  "code": "121",
                  "display": "Medicare FFS"
                },
                {
                  "code": "122",
                  "display": "Medicare Drug Benefit"
                },
                {
                  "code": "123",
                  "display": "Medicare Medical Savings Account (MSA)"
                },
                {
                  "code": "129",
                  "display": "Medicare Non-managed Care Other"
                },
                {
                  "code": "14",
                  "display": "Dual Eligibility Medicare/Medicaid Organization"
                }
              ]
            }
          ]
        }
      },
      "request": {
        "method": "PUT",
        "url": "ValueSet/2.16.840.1.113762.1.4.1104.10/_history/12"
      }
    }
  ]
}