{
  "resourceType": "Bundle",
  "id": "tests-denom-EXM105-FHIR4-bundle",
  "type": "transaction",
  "entry": [
    {
      "resource": {
        "resourceType": "Condition",
        "id": "denom-EXM105-FHIR4-1",
        "meta": {
          "profile": [
            "http://hl7.org/fhir/us/core/StructureDefinition/us-core-condition"
          ]
        },
        "verificationStatus": {
          "coding": [
            {
              "system": "http://terminology.hl7.org/CodeSystem/condition-ver-status",
              "code": "confirmed",
              "display": "Confirmed"
            }
          ]
        },
        "category": [
          {
            "coding": [
              {
                "system": "http://terminology.hl7.org/CodeSystem/condition-category",
                "code": "encounter-diagnosis",
                "display": "Encounter Diagnosis"
              }
            ]
          }
        ],
        "code": {
          "coding": [
            {
              "system": "http://snomed.info/sct",
              "code": "116288000",
              "display": "Paralytic stroke (disorder)"
            }
          ]
        },
        "subject": {
          "reference": "Patient/denom-EXM105-FHIR4"
        }
      },
      "request": {
        "method": "PUT",
        "url": "Condition/denom-EXM105-FHIR4-1"
      }
    },
    {
      "resource": {
        "resourceType": "Encounter",
        "id": "denom-EXM105-FHIR4-2",
        "meta": {
          "profile": [
            "http://hl7.org/fhir/us/core/StructureDefinition/us-core-encounter"
          ]
        },
        "status": "finished",
        "class": {
          "system": "http://terminology.hl7.org/CodeSystem/v3-ActCode",
          "code": "IMP",
          "display": "inpatient encounter"
        },
        "type": [
          {
            "coding": [
              {
                "system": "http://snomed.info/sct",
                "code": "32485007",
                "display": "Hospital admission (procedure)"
              }
            ]
          }
        ],
        "subject": {
          "reference": "Patient/denom-EXM105-FHIR4"
        },
        "period": {
          "start": "2019-08-21T00:00:00-06:00",
          "end": "2019-12-19T08:15:00-07:00"
        },
        "diagnosis": [
          {
            "condition": {
              "reference": "Condition/denom-EXM105-FHIR4-1"
            },
            "use": {
              "coding": [
                {
                  "system": "http://hl7.org/fhir/diagnosis-role",
                  "code": "billing",
                  "display": "Billing"
                }
              ]
            },
            "rank": 1
          }
        ]
      },
      "request": {
        "method": "PUT",
        "url": "Encounter/denom-EXM105-FHIR4-2"
      }
    },
    {
      "resource": {
        "resourceType": "MeasureReport",
        "id": "measurereport-denom-EXM105-FHIR4",
        "contained": [
          {
            "resourceType": "Bundle",
            "id": "3672f3b8-2fd6-4eb9-8c65-0c86a9a77ddb",
            "type": "collection",
            "entry": [
              {
                "fullUrl": "Condition/denom-EXM105-FHIR4-1",
                "resource": {
                  "resourceType": "Condition",
                  "id": "denom-EXM105-FHIR4-1",
                  "meta": {
                    "versionId": "1",
                    "lastUpdated": "2020-01-29T16:25:21.837-07:00",
                    "profile": [
                      "http://hl7.org/fhir/us/core/StructureDefinition/us-core-condition"
                    ]
                  },
                  "verificationStatus": {
                    "coding": [
                      {
                        "system": "http://terminology.hl7.org/CodeSystem/condition-ver-status",
                        "code": "confirmed",
                        "display": "Confirmed"
                      }
                    ]
                  },
                  "category": [
                    {
                      "coding": [
                        {
                          "system": "http://terminology.hl7.org/CodeSystem/condition-category",
                          "code": "encounter-diagnosis",
                          "display": "Encounter Diagnosis"
                        }
                      ]
                    }
                  ],
                  "code": {
                    "coding": [
                      {
                        "system": "http://snomed.info/sct",
                        "code": "116288000",
                        "display": "Paralytic stroke (disorder)"
                      }
                    ]
                  },
                  "subject": {
                    "reference": "Patient/denom-EXM105-FHIR4"
                  }
                }
              },
              {
                "fullUrl": "0d57ce55-d1b4-49dc-953f-9e2efd29c812",
                "resource": {
                  "resourceType": "List",
                  "id": "0d57ce55-d1b4-49dc-953f-9e2efd29c812",
                  "title": "denominator",
                  "entry": [
                    {
                      "item": {
                        "reference": "denom-EXM105-FHIR4-1"
                      }
                    },
                    {
                      "item": {
                        "reference": "denom-EXM105-FHIR4-2"
                      }
                    },
                    {
                      "item": {
                        "reference": "denom-EXM105-FHIR4"
                      }
                    }
                  ]
                }
              },
              {
                "fullUrl": "ca0fd042-3dd7-4b06-b2ce-926f5de80a79",
                "resource": {
                  "resourceType": "List",
                  "id": "ca0fd042-3dd7-4b06-b2ce-926f5de80a79",
                  "title": "numerator",
                  "entry": [
                    {
                      "item": {
                        "reference": "denom-EXM105-FHIR4-1"
                      }
                    },
                    {
                      "item": {
                        "reference": "denom-EXM105-FHIR4-2"
                      }
                    },
                    {
                      "item": {
                        "reference": "denom-EXM105-FHIR4"
                      }
                    }
                  ]
                }
              },
              {
                "fullUrl": "Encounter/denom-EXM105-FHIR4-2",
                "resource": {
                  "resourceType": "Encounter",
                  "id": "denom-EXM105-FHIR4-2",
                  "meta": {
                    "versionId": "1",
                    "lastUpdated": "2020-01-29T16:25:21.837-07:00",
                    "profile": [
                      "http://hl7.org/fhir/us/core/StructureDefinition/us-core-encounter"
                    ]
                  },
                  "status": "finished",
                  "class": {
                    "system": "http://terminology.hl7.org/CodeSystem/v3-ActCode",
                    "code": "IMP",
                    "display": "inpatient encounter"
                  },
                  "type": [
                    {
                      "coding": [
                        {
                          "system": "http://snomed.info/sct",
                          "code": "32485007",
                          "display": "Hospital admission (procedure)"
                        }
                      ]
                    }
                  ],
                  "subject": {
                    "reference": "Patient/denom-EXM105-FHIR4"
                  },
                  "period": {
                    "start": "2019-08-21T00:00:00-06:00",
                    "end": "2019-12-19T08:15:00-07:00"
                  },
                  "diagnosis": [
                    {
                      "condition": {
                        "reference": "Condition/denom-EXM105-FHIR4-1"
                      },
                      "use": {
                        "coding": [
                          {
                            "system": "http://hl7.org/fhir/diagnosis-role",
                            "code": "billing",
                            "display": "Billing"
                          }
                        ]
                      },
                      "rank": 1
                    }
                  ]
                }
              },
              {
                "fullUrl": "Patient/denom-EXM105-FHIR4",
                "resource": {
                  "resourceType": "Patient",
                  "id": "denom-EXM105-FHIR4",
                  "meta": {
                    "versionId": "1",
                    "lastUpdated": "2020-01-29T16:25:21.837-07:00",
                    "profile": [
                      "http://hl7.org/fhir/us/core/StructureDefinition/us-core-patient"
                    ]
                  },
                  "text": {
                    "status": "generated",
                    "div": "<div xmlns=\"http://www.w3.org/1999/xhtml\"><div class=\"hapiHeaderText\">Rick <b>JONES </b></div><table class=\"hapiPropertyTable\"><tbody><tr><td>Identifier</td><td>9999999910</td></tr><tr><td>Date of birth</td><td><span>05 November 1955</span></td></tr></tbody></table></div>"
                  },
                  "extension": [
                    {
                      "url": "http://hl7.org/fhir/us/core/StructureDefinition/us-core-race",
                      "extension": [
                        {
                          "url": "ombCategory",
                          "valueCoding": {
                            "system": "urn:oid:2.16.840.1.113883.6.238",
                            "code": "2054-5",
                            "display": "Black or African American"
                          }
                        }
                      ]
                    },
                    {
                      "url": "http://hl7.org/fhir/us/core/StructureDefinition/us-core-ethnicity",
                      "extension": [
                        {
                          "url": "ombCategory",
                          "valueCoding": {
                            "system": "urn:oid:2.16.840.1.113883.6.238",
                            "code": "2135-2",
                            "display": "Hispanic or Latino"
                          }
                        }
                      ]
                    }
                  ],
                  "identifier": [
                    {
                      "use": "usual",
                      "type": {
                        "coding": [
                          {
                            "system": "http://terminology.hl7.org/CodeSystem/v2-0203",
                            "code": "MR",
                            "display": "Medical Record Number"
                          }
                        ]
                      },
                      "system": "http://hospital.smarthealthit.org",
                      "value": "9999999910"
                    }
                  ],
                  "name": [
                    {
                      "family": "Jones",
                      "given": [
                        "Rick"
                      ]
                    }
                  ],
                  "gender": "male",
                  "birthDate": "1955-11-05"
                }
              },
              {
                "fullUrl": "373def30-ceae-4717-922b-02d8792222cb",
                "resource": {
                  "resourceType": "List",
                  "id": "373def30-ceae-4717-922b-02d8792222cb",
                  "title": "initial-population",
                  "entry": [
                    {
                      "item": {
                        "reference": "denom-EXM105-FHIR4-1"
                      }
                    },
                    {
                      "item": {
                        "reference": "denom-EXM105-FHIR4-2"
                      }
                    },
                    {
                      "item": {
                        "reference": "denom-EXM105-FHIR4"
                      }
                    }
                  ]
                }
              }
            ]
          }
        ],
        "status": "complete",
        "type": "individual",
        "measure": "Measure/measure-EXM105-FHIR4-8.1.000",
        "subject": {
          "reference": "Patient/denom-EXM105-FHIR4"
        },
        "period": {
          "start": "2018-12-31T17:00:00-07:00",
          "end": "2019-12-30T17:00:00-07:00"
        },
        "group": [
          {
            "id": "group-1",
            "population": [
              {
                "code": {
                  "coding": [
                    {
                      "system": "http://terminology.hl7.org/CodeSystem/measure-population",
                      "code": "initial-population",
                      "display": "Initial Population"
                    }
                  ]
                },
                "count": 1
              },
              {
                "code": {
                  "coding": [
                    {
                      "system": "http://terminology.hl7.org/CodeSystem/measure-population",
                      "code": "numerator",
                      "display": "Numerator"
                    }
                  ]
                },
                "count": 0
              },
              {
                "code": {
                  "coding": [
                    {
                      "system": "http://terminology.hl7.org/CodeSystem/measure-population",
                      "code": "denominator",
                      "display": "Denominator"
                    }
                  ]
                },
                "count": 1
              },
              {
                "code": {
                  "coding": [
                    {
                      "system": "http://terminology.hl7.org/CodeSystem/measure-population",
                      "code": "denominator-exclusion",
                      "display": "Denominator Exclusion"
                    }
                  ]
                },
                "count": 0
              }
            ],
            "measureScore": {
              "value": 0.0
            }
          }
        ],
        "evaluatedResource": [
          {
            "reference": "#3672f3b8-2fd6-4eb9-8c65-0c86a9a77ddb"
          }
        ]
      },
      "request": {
        "method": "PUT",
        "url": "MeasureReport/measurereport-denom-EXM105-FHIR4"
      }
    },
    {
      "resource": {
        "resourceType": "Patient",
        "id": "denom-EXM105-FHIR4",
        "meta": {
          "profile": [
            "http://hl7.org/fhir/us/core/StructureDefinition/us-core-patient"
          ]
        },
        "extension": [
          {
            "url": "http://hl7.org/fhir/us/core/StructureDefinition/us-core-race",
            "extension": [
              {
                "url": "ombCategory",
                "valueCoding": {
                  "system": "urn:oid:2.16.840.1.113883.6.238",
                  "code": "2054-5",
                  "display": "Black or African American"
                }
              }
            ]
          },
          {
            "url": "http://hl7.org/fhir/us/core/StructureDefinition/us-core-ethnicity",
            "extension": [
              {
                "url": "ombCategory",
                "valueCoding": {
                  "system": "urn:oid:2.16.840.1.113883.6.238",
                  "code": "2135-2",
                  "display": "Hispanic or Latino"
                }
              }
            ]
          }
        ],
        "identifier": [
          {
            "use": "usual",
            "type": {
              "coding": [
                {
                  "system": "http://terminology.hl7.org/CodeSystem/v2-0203",
                  "code": "MR",
                  "display": "Medical Record Number"
                }
              ]
            },
            "system": "http://hospital.smarthealthit.org",
            "value": "9999999910"
          }
        ],
        "name": [
          {
            "family": "Jones",
            "given": [
              "Rick"
            ]
          }
        ],
        "gender": "male",
        "birthDate": "1955-11-05"
      },
      "request": {
        "method": "PUT",
        "url": "Patient/denom-EXM105-FHIR4"
      }
    }
  ]
}